STUDYID,DOMAIN,USUBJID,DSSEQ,DSTERM,DSDECOD,DSCAT,DSDTC,DSSTDTC,DSSTDY
CDISCPILOT01,DS,01-701-1015,1,Randomized,Randomized,DISPOSITION EVENT,01-02-2014,01-02-2014,1
CDISCPILOT01,DS,01-701-1015,2,Protocol Completed,Completed,DISPOSITION EVENT,07-02-2014,07-02-2014,182
CDISCPILOT01,DS,01-701-1015,3,NA,NA,DISPOSITION EVENT,07-02-2014,07-02-2014,182
CDISCPILOT01,DS,01-701-1023,1,Randomized,Randomized,DISPOSITION EVENT,08-05-2012,08-05-2012,1
CDISCPILOT01,DS,01-701-1023,2,Adverse Event,Adverse Event,DISPOSITION EVENT,09-02-2012,09-02-2012,29
CDISCPILOT01,DS,01-701-1023,3,NA,NA,DISPOSITION EVENT,09-02-2012,09-02-2012,29
CDISCPILOT01,DS,01-701-1023,4,NA,NA,DISPOSITION EVENT,02-18-2013,02-18-2013,198
CDISCPILOT01,DS,01-701-1028,1,Randomized,Randomized,DISPOSITION EVENT,07-19-2013,07-19-2013,1
CDISCPILOT01,DS,01-701-1028,2,Protocol Completed,Completed,DISPOSITION EVENT,01-14-2014,01-14-2014,180
CDISCPILOT01,DS,01-701-1028,3,NA,NA,DISPOSITION EVENT,01-14-2014,01-14-2014,180
CDISCPILOT01,DS,01-701-1033,1,Randomized,Randomized,DISPOSITION EVENT,03-18-2014,03-18-2014,1
CDISCPILOT01,DS,01-701-1033,2,Sponsor Decision (Study or Patient Discontinued by the Sponsor),Study Terminated by Sponsor,DISPOSITION EVENT,04-14-2014,04-14-2014,28
CDISCPILOT01,DS,01-701-1033,3,NA,NA,DISPOSITION EVENT,04-14-2014,04-14-2014,28
CDISCPILOT01,DS,01-701-1033,4,NA,NA,DISPOSITION EVENT,09-15-2014,09-15-2014,182
CDISCPILOT01,DS,01-701-1034,1,Randomized,Randomized,DISPOSITION EVENT,07-01-2014,07-01-2014,1
CDISCPILOT01,DS,01-701-1034,2,Protocol Completed,Completed,DISPOSITION EVENT,12-30-2014,12-30-2014,183
CDISCPILOT01,DS,01-701-1034,3,NA,NA,DISPOSITION EVENT,12-30-2014,12-30-2014,183
CDISCPILOT01,DS,01-701-1047,1,Randomized,Randomized,DISPOSITION EVENT,02-12-2013,02-12-2013,1
CDISCPILOT01,DS,01-701-1047,2,Adverse Event,Adverse Event,DISPOSITION EVENT,03-29-2013,03-29-2013,46
CDISCPILOT01,DS,01-701-1047,3,NA,NA,DISPOSITION EVENT,04-07-2013,04-07-2013,55
CDISCPILOT01,DS,01-701-1047,4,NA,NA,DISPOSITION EVENT,07-28-2013,07-28-2013,167
CDISCPILOT01,DS,01-701-1057,1,Screen Failure,Screen Failure,DISPOSITION EVENT,12-20-2013,12-20-2013,NA
CDISCPILOT01,DS,01-701-1097,1,Randomized,Randomized,DISPOSITION EVENT,01-01-2014,01-01-2014,1
CDISCPILOT01,DS,01-701-1097,2,Protocol Completed,Completed,DISPOSITION EVENT,07-09-2014,07-09-2014,190
CDISCPILOT01,DS,01-701-1097,3,NA,NA,DISPOSITION EVENT,07-09-2014,07-09-2014,190
CDISCPILOT01,DS,01-701-1111,1,Randomized,Randomized,DISPOSITION EVENT,09-07-2012,09-07-2012,1
CDISCPILOT01,DS,01-701-1111,2,Adverse Event,Adverse Event,DISPOSITION EVENT,09-17-2012,09-17-2012,11
CDISCPILOT01,DS,01-701-1111,3,NA,NA,DISPOSITION EVENT,09-17-2012,09-17-2012,11
CDISCPILOT01,DS,01-701-1111,4,NA,NA,DISPOSITION EVENT,02-22-2013,02-22-2013,169
CDISCPILOT01,DS,01-701-1115,1,Randomized,Randomized,DISPOSITION EVENT,11-30-2012,11-30-2012,1
CDISCPILOT01,DS,01-701-1115,2,Adverse Event,Adverse Event,DISPOSITION EVENT,01-23-2013,01-23-2013,55
CDISCPILOT01,DS,01-701-1115,3,NA,NA,DISPOSITION EVENT,01-23-2013,01-23-2013,55
CDISCPILOT01,DS,01-701-1115,4,NA,NA,DISPOSITION EVENT,05-20-2013,05-20-2013,172
CDISCPILOT01,DS,01-701-1118,1,Randomized,Randomized,DISPOSITION EVENT,03-12-2014,03-12-2014,1
CDISCPILOT01,DS,01-701-1118,2,Protocol Completed,Completed,DISPOSITION EVENT,09-09-2014,09-09-2014,182
CDISCPILOT01,DS,01-701-1118,3,NA,NA,DISPOSITION EVENT,09-09-2014,09-09-2014,182
CDISCPILOT01,DS,01-701-1130,1,Randomized,Randomized,DISPOSITION EVENT,02-15-2014,02-15-2014,1
CDISCPILOT01,DS,01-701-1130,2,Protocol Completed,Completed,DISPOSITION EVENT,08-16-2014,08-16-2014,183
CDISCPILOT01,DS,01-701-1130,3,NA,NA,DISPOSITION EVENT,08-16-2014,08-16-2014,183
CDISCPILOT01,DS,01-701-1133,1,Randomized,Randomized,DISPOSITION EVENT,10-28-2012,10-28-2012,1
CDISCPILOT01,DS,01-701-1133,2,Protocol Completed,Completed,DISPOSITION EVENT,04-29-2013,04-29-2013,184
CDISCPILOT01,DS,01-701-1133,3,NA,NA,DISPOSITION EVENT,04-29-2013,04-29-2013,184
CDISCPILOT01,DS,01-701-1145,1,Screen Failure,Screen Failure,DISPOSITION EVENT,09-05-2013,09-05-2013,NA
CDISCPILOT01,DS,01-701-1146,1,Randomized,Randomized,DISPOSITION EVENT,05-20-2013,05-20-2013,1
CDISCPILOT01,DS,01-701-1146,2,Adverse Event,Adverse Event,DISPOSITION EVENT,06-30-2013,06-30-2013,42
CDISCPILOT01,DS,01-701-1146,3,NA,NA,DISPOSITION EVENT,06-30-2013,06-30-2013,42
CDISCPILOT01,DS,01-701-1148,1,Randomized,Randomized,DISPOSITION EVENT,08-23-2013,08-23-2013,1
CDISCPILOT01,DS,01-701-1148,2,Protocol Completed,Completed,DISPOSITION EVENT,02-20-2014,02-20-2014,182
CDISCPILOT01,DS,01-701-1148,3,NA,NA,DISPOSITION EVENT,02-20-2014,02-20-2014,182
CDISCPILOT01,DS,01-701-1153,1,Randomized,Randomized,DISPOSITION EVENT,09-23-2013,09-23-2013,1
CDISCPILOT01,DS,01-701-1153,2,Protocol Completed,Completed,DISPOSITION EVENT,04-01-2014,04-01-2014,191
CDISCPILOT01,DS,01-701-1153,3,NA,NA,DISPOSITION EVENT,04-01-2014,04-01-2014,191
CDISCPILOT01,DS,01-701-1162,1,Screen Failure,Screen Failure,DISPOSITION EVENT,04-18-2013,04-18-2013,NA
CDISCPILOT01,DS,01-701-1176,1,Screen Failure,Screen Failure,DISPOSITION EVENT,09-30-2012,09-30-2012,NA
CDISCPILOT01,DS,01-701-1180,1,Randomized,Randomized,DISPOSITION EVENT,02-12-2013,02-12-2013,1
CDISCPILOT01,DS,01-701-1180,2,Adverse Event,Adverse Event,DISPOSITION EVENT,03-23-2013,03-23-2013,40
CDISCPILOT01,DS,01-701-1180,3,NA,NA,DISPOSITION EVENT,03-23-2013,03-23-2013,40
CDISCPILOT01,DS,01-701-1181,1,Randomized,Randomized,DISPOSITION EVENT,12-05-2013,12-05-2013,1
CDISCPILOT01,DS,01-701-1181,2,Adverse Event,Adverse Event,DISPOSITION EVENT,12-12-2013,12-12-2013,8
CDISCPILOT01,DS,01-701-1181,3,NA,NA,DISPOSITION EVENT,12-12-2013,12-12-2013,8
CDISCPILOT01,DS,01-701-1181,4,NA,NA,DISPOSITION EVENT,05-23-2014,05-23-2014,170
CDISCPILOT01,DS,01-701-1188,1,Randomized,Randomized,DISPOSITION EVENT,02-15-2013,02-15-2013,1
CDISCPILOT01,DS,01-701-1188,2,Adverse Event,Adverse Event,DISPOSITION EVENT,03-25-2013,03-25-2013,39
CDISCPILOT01,DS,01-701-1188,3,NA,NA,DISPOSITION EVENT,03-25-2013,03-25-2013,39
CDISCPILOT01,DS,01-701-1188,4,NA,NA,DISPOSITION EVENT,08-04-2013,08-04-2013,171
CDISCPILOT01,DS,01-701-1192,1,Randomized,Randomized,DISPOSITION EVENT,07-22-2012,07-22-2012,1
CDISCPILOT01,DS,01-701-1192,2,Protocol Completed,Completed,DISPOSITION EVENT,01-20-2013,01-20-2013,183
CDISCPILOT01,DS,01-701-1192,3,NA,NA,DISPOSITION EVENT,01-20-2013,01-20-2013,183
CDISCPILOT01,DS,01-701-1203,1,Randomized,Randomized,DISPOSITION EVENT,02-02-2013,02-02-2013,1
CDISCPILOT01,DS,01-701-1203,2,Protocol Completed,Completed,DISPOSITION EVENT,08-03-2013,08-03-2013,183
CDISCPILOT01,DS,01-701-1203,3,NA,NA,DISPOSITION EVENT,08-03-2013,08-03-2013,183
CDISCPILOT01,DS,01-701-1211,1,Randomized,Randomized,DISPOSITION EVENT,11-15-2012,11-15-2012,1
CDISCPILOT01,DS,01-701-1211,2,NA,NA,DISPOSITION EVENT,01-08-2013,01-08-2013,55
CDISCPILOT01,DS,01-701-1211,3,Death,Death,DISPOSITION EVENT,01-14-2013,01-14-2013,61
CDISCPILOT01,DS,01-701-1234,1,Randomized,Randomized,DISPOSITION EVENT,03-30-2013,03-30-2013,1
CDISCPILOT01,DS,01-701-1234,2,Protocol Completed,Completed,DISPOSITION EVENT,09-22-2013,09-22-2013,177
CDISCPILOT01,DS,01-701-1234,3,NA,NA,DISPOSITION EVENT,09-22-2013,09-22-2013,177
CDISCPILOT01,DS,01-701-1239,1,Randomized,Randomized,DISPOSITION EVENT,01-11-2014,01-11-2014,1
CDISCPILOT01,DS,01-701-1239,2,Protocol Completed,Completed,DISPOSITION EVENT,07-11-2014,07-11-2014,182
CDISCPILOT01,DS,01-701-1239,3,NA,NA,DISPOSITION EVENT,07-11-2014,07-11-2014,182
CDISCPILOT01,DS,01-701-1240,1,Screen Failure,Screen Failure,DISPOSITION EVENT,09-22-2013,09-22-2013,NA
CDISCPILOT01,DS,01-701-1275,1,Randomized,Randomized,DISPOSITION EVENT,02-07-2014,02-07-2014,1
CDISCPILOT01,DS,01-701-1275,2,Withdraw Consent,Withdrawal by Subject,DISPOSITION EVENT,06-14-2014,06-14-2014,128
CDISCPILOT01,DS,01-701-1275,3,NA,NA,DISPOSITION EVENT,06-14-2014,06-14-2014,128
CDISCPILOT01,DS,01-701-1287,1,Randomized,Randomized,DISPOSITION EVENT,01-25-2014,01-25-2014,1
CDISCPILOT01,DS,01-701-1287,2,Protocol Completed,Completed,DISPOSITION EVENT,07-26-2014,07-26-2014,183
CDISCPILOT01,DS,01-701-1287,3,NA,NA,DISPOSITION EVENT,07-26-2014,07-26-2014,183
CDISCPILOT01,DS,01-701-1294,1,Randomized,Randomized,DISPOSITION EVENT,03-24-2013,03-24-2013,1
CDISCPILOT01,DS,01-701-1294,2,Adverse Event,Adverse Event,DISPOSITION EVENT,06-14-2013,06-14-2013,83
CDISCPILOT01,DS,01-701-1294,3,NA,NA,DISPOSITION EVENT,06-14-2013,06-14-2013,83
CDISCPILOT01,DS,01-701-1294,4,NA,NA,DISPOSITION EVENT,10-08-2013,10-08-2013,199
CDISCPILOT01,DS,01-701-1302,1,Randomized,Randomized,DISPOSITION EVENT,08-29-2013,08-29-2013,1
CDISCPILOT01,DS,01-701-1302,2,Adverse Event,Adverse Event,DISPOSITION EVENT,11-05-2013,11-05-2013,69
CDISCPILOT01,DS,01-701-1302,3,NA,NA,DISPOSITION EVENT,11-05-2013,11-05-2013,69
CDISCPILOT01,DS,01-701-1302,4,NA,NA,DISPOSITION EVENT,02-13-2014,02-13-2014,169
CDISCPILOT01,DS,01-701-1307,1,Screen Failure,Screen Failure,DISPOSITION EVENT,12-08-2013,12-08-2013,NA
CDISCPILOT01,DS,01-701-1317,1,Randomized,Randomized,DISPOSITION EVENT,05-22-2014,05-22-2014,1
CDISCPILOT01,DS,01-701-1317,2,Protocol Completed,Completed,DISPOSITION EVENT,11-20-2014,11-20-2014,183
CDISCPILOT01,DS,01-701-1317,3,NA,NA,DISPOSITION EVENT,11-20-2014,11-20-2014,183
CDISCPILOT01,DS,01-701-1324,1,Randomized,Randomized,DISPOSITION EVENT,10-02-2012,10-02-2012,1
CDISCPILOT01,DS,01-701-1324,2,Protocol Completed,Completed,DISPOSITION EVENT,04-02-2013,04-02-2013,183
CDISCPILOT01,DS,01-701-1324,3,NA,NA,DISPOSITION EVENT,04-02-2013,04-02-2013,183
CDISCPILOT01,DS,01-701-1341,1,Randomized,Randomized,DISPOSITION EVENT,01-05-2013,01-05-2013,1
CDISCPILOT01,DS,01-701-1341,2,Adverse Event,Adverse Event,DISPOSITION EVENT,02-07-2013,02-07-2013,34
CDISCPILOT01,DS,01-701-1341,3,NA,NA,DISPOSITION EVENT,02-07-2013,02-07-2013,34
CDISCPILOT01,DS,01-701-1345,1,Randomized,Randomized,DISPOSITION EVENT,10-08-2013,10-08-2013,1
CDISCPILOT01,DS,01-701-1345,2,Sponsor Decision (Study or Patient Discontinued by the Sponsor),Study Terminated by Sponsor,DISPOSITION EVENT,03-18-2014,03-18-2014,162
CDISCPILOT01,DS,01-701-1345,3,NA,NA,DISPOSITION EVENT,03-18-2014,03-18-2014,162
CDISCPILOT01,DS,01-701-1356,1,Screen Failure,Screen Failure,DISPOSITION EVENT,04-01-2014,04-01-2014,NA
CDISCPILOT01,DS,01-701-1360,1,Randomized,Randomized,DISPOSITION EVENT,07-31-2013,07-31-2013,1
CDISCPILOT01,DS,01-701-1360,2,Pmd Decision Due to Ae's,Physician Decision,DISPOSITION EVENT,08-14-2013,08-14-2013,15
CDISCPILOT01,DS,01-701-1360,3,NA,NA,DISPOSITION EVENT,08-14-2013,08-14-2013,15
CDISCPILOT01,DS,01-701-1360,4,NA,NA,DISPOSITION EVENT,02-11-2014,02-11-2014,196
CDISCPILOT01,DS,01-701-1363,1,Randomized,Randomized,DISPOSITION EVENT,05-30-2013,05-30-2013,1
CDISCPILOT01,DS,01-701-1363,2,Protocol Completed,Completed,DISPOSITION EVENT,11-27-2013,11-27-2013,182
CDISCPILOT01,DS,01-701-1363,3,NA,NA,DISPOSITION EVENT,11-27-2013,11-27-2013,182
CDISCPILOT01,DS,01-701-1369,1,Screen Failure,Screen Failure,DISPOSITION EVENT,09-18-2013,09-18-2013,NA
CDISCPILOT01,DS,01-701-1383,1,Randomized,Randomized,DISPOSITION EVENT,02-04-2013,02-04-2013,1
CDISCPILOT01,DS,01-701-1383,2,Protocol Completed,Completed,DISPOSITION EVENT,08-06-2013,08-06-2013,184
CDISCPILOT01,DS,01-701-1383,3,NA,NA,DISPOSITION EVENT,08-06-2013,08-06-2013,184
CDISCPILOT01,DS,01-701-1386,1,Screen Failure,Screen Failure,DISPOSITION EVENT,12-28-2013,12-28-2013,NA
CDISCPILOT01,DS,01-701-1387,1,Randomized,Randomized,DISPOSITION EVENT,03-12-2014,03-12-2014,1
CDISCPILOT01,DS,01-701-1387,2,Protocol Violation,Protocol Violation,DISPOSITION EVENT,03-25-2014,03-25-2014,14
CDISCPILOT01,DS,01-701-1387,3,NA,NA,DISPOSITION EVENT,03-25-2014,03-25-2014,14
CDISCPILOT01,DS,01-701-1387,4,NA,NA,DISPOSITION EVENT,08-27-2014,08-27-2014,169
CDISCPILOT01,DS,01-701-1392,1,Randomized,Randomized,DISPOSITION EVENT,10-28-2012,10-28-2012,1
CDISCPILOT01,DS,01-701-1392,2,Protocol Completed,Completed,DISPOSITION EVENT,04-28-2013,04-28-2013,183
CDISCPILOT01,DS,01-701-1392,3,NA,NA,DISPOSITION EVENT,04-28-2013,04-28-2013,183
CDISCPILOT01,DS,01-701-1411,1,Screen Failure,Screen Failure,DISPOSITION EVENT,11-14-2012,11-14-2012,NA
CDISCPILOT01,DS,01-701-1415,1,Randomized,Randomized,DISPOSITION EVENT,09-23-2013,09-23-2013,1
CDISCPILOT01,DS,01-701-1415,2,Protocol Completed,Completed,DISPOSITION EVENT,03-24-2014,03-24-2014,183
CDISCPILOT01,DS,01-701-1415,3,NA,NA,DISPOSITION EVENT,03-24-2014,03-24-2014,183
CDISCPILOT01,DS,01-701-1429,1,Randomized,Randomized,DISPOSITION EVENT,03-19-2013,03-19-2013,1
CDISCPILOT01,DS,01-701-1429,2,Withdraw Consent Due to Compliancy Issue,Withdrawal by Subject,DISPOSITION EVENT,04-30-2013,04-30-2013,43
CDISCPILOT01,DS,01-701-1429,3,NA,NA,DISPOSITION EVENT,04-30-2013,04-30-2013,43
CDISCPILOT01,DS,01-701-1440,1,Randomized,Randomized,DISPOSITION EVENT,08-08-2013,08-08-2013,1
CDISCPILOT01,DS,01-701-1440,2,Protocol Completed,Completed,DISPOSITION EVENT,02-05-2014,02-05-2014,182
CDISCPILOT01,DS,01-701-1440,3,NA,NA,DISPOSITION EVENT,02-05-2014,02-05-2014,182
CDISCPILOT01,DS,01-701-1442,1,Randomized,Randomized,DISPOSITION EVENT,10-26-2013,10-26-2013,1
CDISCPILOT01,DS,01-701-1442,2,Protocol Completed,Completed,DISPOSITION EVENT,04-26-2014,04-26-2014,183
CDISCPILOT01,DS,01-701-1442,3,NA,NA,DISPOSITION EVENT,04-26-2014,04-26-2014,183
CDISCPILOT01,DS,01-701-1444,1,Randomized,Randomized,DISPOSITION EVENT,01-05-2013,01-05-2013,1
CDISCPILOT01,DS,01-701-1444,2,Adverse Event,Adverse Event,DISPOSITION EVENT,02-13-2013,02-13-2013,40
CDISCPILOT01,DS,01-701-1444,3,NA,NA,DISPOSITION EVENT,02-13-2013,02-13-2013,40
CDISCPILOT01,DS,01-701-1444,4,NA,NA,DISPOSITION EVENT,06-20-2013,06-20-2013,167
CDISCPILOT01,DS,01-702-1082,1,Randomized,Randomized,DISPOSITION EVENT,07-26-2013,07-26-2013,1
CDISCPILOT01,DS,01-702-1082,2,"Pt Finds Patches""Inconvenient & Itchy;pt Prefers'pills'""",Withdrawal by Subject,DISPOSITION EVENT,11-17-2013,11-17-2013,115
CDISCPILOT01,DS,01-702-1082,3,NA,NA,DISPOSITION EVENT,11-17-2013,11-17-2013,115
CDISCPILOT01,DS,01-703-1042,1,Randomized,Randomized,DISPOSITION EVENT,03-02-2013,03-02-2013,1
CDISCPILOT01,DS,01-703-1042,2,Protocol Completed,Completed,DISPOSITION EVENT,08-31-2013,08-31-2013,183
CDISCPILOT01,DS,01-703-1042,3,NA,NA,DISPOSITION EVENT,08-31-2013,08-31-2013,183
CDISCPILOT01,DS,01-703-1076,1,Randomized,Randomized,DISPOSITION EVENT,10-25-2013,10-25-2013,1
CDISCPILOT01,DS,01-703-1076,2,Adverse Event,Adverse Event,DISPOSITION EVENT,12-24-2013,12-24-2013,61
CDISCPILOT01,DS,01-703-1076,3,NA,NA,DISPOSITION EVENT,12-24-2013,12-24-2013,61
CDISCPILOT01,DS,01-703-1086,1,Randomized,Randomized,DISPOSITION EVENT,09-02-2012,09-02-2012,1
CDISCPILOT01,DS,01-703-1086,2,Adverse Event,Adverse Event,DISPOSITION EVENT,12-24-2012,12-24-2012,114
CDISCPILOT01,DS,01-703-1086,3,NA,NA,DISPOSITION EVENT,12-24-2012,12-24-2012,114
CDISCPILOT01,DS,01-703-1086,4,NA,NA,DISPOSITION EVENT,03-26-2013,03-26-2013,206
CDISCPILOT01,DS,01-703-1096,1,Randomized,Randomized,DISPOSITION EVENT,01-25-2013,01-25-2013,1
CDISCPILOT01,DS,01-703-1096,2,NA,NA,DISPOSITION EVENT,02-23-2013,02-23-2013,30
CDISCPILOT01,DS,01-703-1096,3,Unable to Contact Patient (Lost to Follow-Up),Lost to Follow-Up,DISPOSITION EVENT,03-29-2013,03-29-2013,64
CDISCPILOT01,DS,01-703-1100,1,Randomized,Randomized,DISPOSITION EVENT,03-13-2013,03-13-2013,1
CDISCPILOT01,DS,01-703-1100,2,Protocol Completed,Completed,DISPOSITION EVENT,09-14-2013,09-14-2013,186
CDISCPILOT01,DS,01-703-1100,3,NA,NA,DISPOSITION EVENT,09-14-2013,09-14-2013,186
CDISCPILOT01,DS,01-703-1119,1,Randomized,Randomized,DISPOSITION EVENT,02-20-2013,02-20-2013,1
CDISCPILOT01,DS,01-703-1119,2,Adverse Event,Adverse Event,DISPOSITION EVENT,06-13-2013,06-13-2013,114
CDISCPILOT01,DS,01-703-1119,3,NA,NA,DISPOSITION EVENT,06-13-2013,06-13-2013,114
CDISCPILOT01,DS,01-703-1119,4,NA,NA,DISPOSITION EVENT,08-24-2013,08-24-2013,186
CDISCPILOT01,DS,01-703-1175,1,Randomized,Randomized,DISPOSITION EVENT,12-20-2013,12-20-2013,1
CDISCPILOT01,DS,01-703-1175,2,Protocol Entry Criteria not Met,Protocol Violation,DISPOSITION EVENT,12-31-2013,12-31-2013,12
CDISCPILOT01,DS,01-703-1175,3,NA,NA,DISPOSITION EVENT,12-31-2013,12-31-2013,12
CDISCPILOT01,DS,01-703-1182,1,Randomized,Randomized,DISPOSITION EVENT,10-17-2013,10-17-2013,1
CDISCPILOT01,DS,01-703-1182,2,Adverse Event,Adverse Event,DISPOSITION EVENT,12-12-2013,12-12-2013,57
CDISCPILOT01,DS,01-703-1182,3,NA,NA,DISPOSITION EVENT,12-12-2013,12-12-2013,57
CDISCPILOT01,DS,01-703-1197,1,NA,NA,DISPOSITION EVENT,06-01-2013,06-01-2013,-15
CDISCPILOT01,DS,01-703-1197,2,Randomized,Randomized,DISPOSITION EVENT,06-16-2013,06-16-2013,1
CDISCPILOT01,DS,01-703-1197,3,Caregiver Decision:  See Comment Page,Withdrawal by Subject,DISPOSITION EVENT,07-22-2013,07-22-2013,37
CDISCPILOT01,DS,01-703-1210,1,Randomized,Randomized,DISPOSITION EVENT,03-16-2013,03-16-2013,1
CDISCPILOT01,DS,01-703-1210,2,Protocol Completed,Completed,DISPOSITION EVENT,09-06-2013,09-06-2013,175
CDISCPILOT01,DS,01-703-1210,3,NA,NA,DISPOSITION EVENT,09-06-2013,09-06-2013,175
CDISCPILOT01,DS,01-703-1258,1,Randomized,Randomized,DISPOSITION EVENT,07-20-2012,07-20-2012,1
CDISCPILOT01,DS,01-703-1258,2,NA,NA,DISPOSITION EVENT,12-31-2012,12-31-2012,165
CDISCPILOT01,DS,01-703-1258,3,Adverse Event,Adverse Event,DISPOSITION EVENT,01-21-2013,01-21-2013,186
CDISCPILOT01,DS,01-703-1279,1,NA,NA,DISPOSITION EVENT,04-27-2013,04-27-2013,-16
CDISCPILOT01,DS,01-703-1279,2,Randomized,Randomized,DISPOSITION EVENT,05-13-2013,05-13-2013,1
CDISCPILOT01,DS,01-703-1279,3,Caregiver Became Ill,Withdrawal by Subject,DISPOSITION EVENT,06-22-2013,06-22-2013,41
CDISCPILOT01,DS,01-703-1295,1,Randomized,Randomized,DISPOSITION EVENT,11-21-2013,11-21-2013,1
CDISCPILOT01,DS,01-703-1295,2,Family Wishes to Discontinue,Withdrawal by Subject,DISPOSITION EVENT,05-19-2014,05-19-2014,180
CDISCPILOT01,DS,01-703-1295,3,NA,NA,DISPOSITION EVENT,05-19-2014,05-19-2014,180
CDISCPILOT01,DS,01-703-1299,1,Randomized,Randomized,DISPOSITION EVENT,09-12-2012,09-12-2012,1
CDISCPILOT01,DS,01-703-1299,2,Protocol Completed,Completed,DISPOSITION EVENT,03-13-2013,03-13-2013,183
CDISCPILOT01,DS,01-703-1299,3,NA,NA,DISPOSITION EVENT,03-13-2013,03-13-2013,183
CDISCPILOT01,DS,01-703-1335,1,Randomized,Randomized,DISPOSITION EVENT,03-17-2014,03-17-2014,1
CDISCPILOT01,DS,01-703-1335,2,Protocol Violation,Protocol Violation,DISPOSITION EVENT,05-24-2014,05-24-2014,69
CDISCPILOT01,DS,01-703-1335,3,NA,NA,DISPOSITION EVENT,05-24-2014,05-24-2014,69
CDISCPILOT01,DS,01-703-1379,1,Randomized,Randomized,DISPOSITION EVENT,09-22-2013,09-22-2013,1
CDISCPILOT01,DS,01-703-1379,2,Protocol Completed,Completed,DISPOSITION EVENT,03-21-2014,03-21-2014,181
CDISCPILOT01,DS,01-703-1379,3,NA,NA,DISPOSITION EVENT,03-21-2014,03-21-2014,181
CDISCPILOT01,DS,01-703-1396,1,Screen Failure,Screen Failure,DISPOSITION EVENT,02-09-2014,02-09-2014,NA
CDISCPILOT01,DS,01-703-1403,1,Randomized,Randomized,DISPOSITION EVENT,12-12-2012,12-12-2012,1
CDISCPILOT01,DS,01-703-1403,2,Adverse Event,Adverse Event,DISPOSITION EVENT,12-19-2012,12-19-2012,8
CDISCPILOT01,DS,01-703-1403,3,NA,NA,DISPOSITION EVENT,12-19-2012,12-19-2012,8
CDISCPILOT01,DS,01-703-1439,1,Randomized,Randomized,DISPOSITION EVENT,03-12-2014,03-12-2014,1
CDISCPILOT01,DS,01-703-1439,2,Protocol Completed,Completed,DISPOSITION EVENT,09-11-2014,09-11-2014,184
CDISCPILOT01,DS,01-703-1439,3,NA,NA,DISPOSITION EVENT,09-11-2014,09-11-2014,184
CDISCPILOT01,DS,01-704-1008,1,Randomized,Randomized,DISPOSITION EVENT,01-13-2013,01-13-2013,1
CDISCPILOT01,DS,01-704-1008,2,Adverse Event,Adverse Event,DISPOSITION EVENT,02-25-2013,02-25-2013,44
CDISCPILOT01,DS,01-704-1008,3,NA,NA,DISPOSITION EVENT,02-25-2013,02-25-2013,44
CDISCPILOT01,DS,01-704-1009,1,Randomized,Randomized,DISPOSITION EVENT,08-27-2013,08-27-2013,1
CDISCPILOT01,DS,01-704-1009,2,NA,NA,DISPOSITION EVENT,09-14-2013,09-14-2013,19
CDISCPILOT01,DS,01-704-1009,3,Too Time Consuming;pt Refused Future Holters,Withdrawal by Subject,DISPOSITION EVENT,10-02-2013,10-02-2013,37
CDISCPILOT01,DS,01-704-1010,1,Randomized,Randomized,DISPOSITION EVENT,02-21-2014,02-21-2014,1
CDISCPILOT01,DS,01-704-1010,2,Patient is Moving,Withdrawal by Subject,DISPOSITION EVENT,07-09-2014,07-09-2014,139
CDISCPILOT01,DS,01-704-1010,3,NA,NA,DISPOSITION EVENT,07-09-2014,07-09-2014,139
CDISCPILOT01,DS,01-704-1017,1,Randomized,Randomized,DISPOSITION EVENT,10-06-2013,10-06-2013,1
CDISCPILOT01,DS,01-704-1017,2,NA,NA,DISPOSITION EVENT,11-01-2013,11-01-2013,27
CDISCPILOT01,DS,01-704-1017,3,Adverse Event,Adverse Event,DISPOSITION EVENT,11-24-2013,11-24-2013,50
CDISCPILOT01,DS,01-704-1025,1,Randomized,Randomized,DISPOSITION EVENT,09-27-2013,09-27-2013,1
CDISCPILOT01,DS,01-704-1025,2,Adverse Event,Adverse Event,DISPOSITION EVENT,11-29-2013,11-29-2013,64
CDISCPILOT01,DS,01-704-1025,3,NA,NA,DISPOSITION EVENT,11-29-2013,11-29-2013,64
CDISCPILOT01,DS,01-704-1065,1,Randomized,Randomized,DISPOSITION EVENT,10-24-2013,10-24-2013,1
CDISCPILOT01,DS,01-704-1065,2,Adverse Event,Adverse Event,DISPOSITION EVENT,12-24-2013,12-24-2013,62
CDISCPILOT01,DS,01-704-1065,3,NA,NA,DISPOSITION EVENT,12-24-2013,12-24-2013,62
CDISCPILOT01,DS,01-704-1074,1,Randomized,Randomized,DISPOSITION EVENT,01-22-2014,01-22-2014,1
CDISCPILOT01,DS,01-704-1074,2,Adverse Event,Adverse Event,DISPOSITION EVENT,03-31-2014,03-31-2014,69
CDISCPILOT01,DS,01-704-1074,3,NA,NA,DISPOSITION EVENT,03-31-2014,03-31-2014,69
CDISCPILOT01,DS,01-704-1093,1,Randomized,Randomized,DISPOSITION EVENT,03-15-2013,03-15-2013,1
CDISCPILOT01,DS,01-704-1093,2,Adverse Event,Adverse Event,DISPOSITION EVENT,06-20-2013,06-20-2013,98
CDISCPILOT01,DS,01-704-1093,3,NA,NA,DISPOSITION EVENT,06-20-2013,06-20-2013,98
CDISCPILOT01,DS,01-704-1093,4,NA,NA,DISPOSITION EVENT,12-25-2013,12-25-2013,286
CDISCPILOT01,DS,01-704-1114,1,Randomized,Randomized,DISPOSITION EVENT,01-23-2013,01-23-2013,1
CDISCPILOT01,DS,01-704-1114,2,Leaving Area for 5 Months,Withdrawal by Subject,DISPOSITION EVENT,07-08-2013,07-08-2013,167
CDISCPILOT01,DS,01-704-1114,3,NA,NA,DISPOSITION EVENT,07-08-2013,07-08-2013,167
CDISCPILOT01,DS,01-704-1120,1,Randomized,Randomized,DISPOSITION EVENT,12-02-2013,12-02-2013,1
CDISCPILOT01,DS,01-704-1120,2,Adverse Event,Adverse Event,DISPOSITION EVENT,02-03-2014,02-03-2014,64
CDISCPILOT01,DS,01-704-1120,3,NA,NA,DISPOSITION EVENT,02-03-2014,02-03-2014,64
CDISCPILOT01,DS,01-704-1127,1,Randomized,Randomized,DISPOSITION EVENT,10-02-2013,10-02-2013,1
CDISCPILOT01,DS,01-704-1127,2,Protocol Completed,Completed,DISPOSITION EVENT,03-31-2014,03-31-2014,181
CDISCPILOT01,DS,01-704-1127,3,NA,NA,DISPOSITION EVENT,03-31-2014,03-31-2014,181
CDISCPILOT01,DS,01-704-1135,1,Randomized,Randomized,DISPOSITION EVENT,10-31-2013,10-31-2013,1
CDISCPILOT01,DS,01-704-1135,2,Protocol Completed,Completed,DISPOSITION EVENT,05-16-2014,05-16-2014,198
CDISCPILOT01,DS,01-704-1135,3,NA,NA,DISPOSITION EVENT,05-16-2014,05-16-2014,198
CDISCPILOT01,DS,01-704-1164,1,Randomized,Randomized,DISPOSITION EVENT,09-19-2012,09-19-2012,1
CDISCPILOT01,DS,01-704-1164,2,Protocol Completed,Completed,DISPOSITION EVENT,04-04-2013,04-04-2013,198
CDISCPILOT01,DS,01-704-1164,3,NA,NA,DISPOSITION EVENT,04-04-2013,04-04-2013,198
CDISCPILOT01,DS,01-704-1218,1,Randomized,Randomized,DISPOSITION EVENT,11-19-2012,11-19-2012,1
CDISCPILOT01,DS,01-704-1218,2,Protocol Completed,Completed,DISPOSITION EVENT,05-27-2013,05-27-2013,190
CDISCPILOT01,DS,01-704-1218,3,NA,NA,DISPOSITION EVENT,05-27-2013,05-27-2013,190
CDISCPILOT01,DS,01-704-1233,1,Randomized,Randomized,DISPOSITION EVENT,03-21-2013,03-21-2013,1
CDISCPILOT01,DS,01-704-1233,2,NA,NA,DISPOSITION EVENT,07-11-2013,07-11-2013,113
CDISCPILOT01,DS,01-704-1233,3,Withdrew Consent,Withdrawal by Subject,DISPOSITION EVENT,07-14-2013,07-14-2013,116
CDISCPILOT01,DS,01-704-1241,1,Randomized,Randomized,DISPOSITION EVENT,08-25-2013,08-25-2013,1
CDISCPILOT01,DS,01-704-1241,2,Adverse Event,Adverse Event,DISPOSITION EVENT,10-31-2013,10-31-2013,68
CDISCPILOT01,DS,01-704-1241,3,NA,NA,DISPOSITION EVENT,10-31-2013,10-31-2013,68
CDISCPILOT01,DS,01-704-1260,1,Randomized,Randomized,DISPOSITION EVENT,08-30-2012,08-30-2012,1
CDISCPILOT01,DS,01-704-1260,2,NA,NA,DISPOSITION EVENT,10-24-2012,10-24-2012,56
CDISCPILOT01,DS,01-704-1260,3,Too many Visits,Withdrawal by Subject,DISPOSITION EVENT,01-18-2013,01-18-2013,142
CDISCPILOT01,DS,01-704-1266,1,Randomized,Randomized,DISPOSITION EVENT,10-13-2013,10-13-2013,1
CDISCPILOT01,DS,01-704-1266,2,Adverse Event,Adverse Event,DISPOSITION EVENT,12-06-2013,12-06-2013,55
CDISCPILOT01,DS,01-704-1266,3,NA,NA,DISPOSITION EVENT,12-06-2013,12-06-2013,55
CDISCPILOT01,DS,01-704-1323,1,Randomized,Randomized,DISPOSITION EVENT,07-08-2013,07-08-2013,1
CDISCPILOT01,DS,01-704-1323,2,NA,NA,DISPOSITION EVENT,08-04-2013,08-04-2013,28
CDISCPILOT01,DS,01-704-1323,3,Adverse Event,Adverse Event,DISPOSITION EVENT,08-08-2013,08-08-2013,32
CDISCPILOT01,DS,01-704-1325,1,Randomized,Randomized,DISPOSITION EVENT,04-23-2014,04-23-2014,1
CDISCPILOT01,DS,01-704-1325,2,Protocol Violation,Protocol Violation,DISPOSITION EVENT,08-06-2014,08-06-2014,106
CDISCPILOT01,DS,01-704-1325,3,NA,NA,DISPOSITION EVENT,08-06-2014,08-06-2014,106
CDISCPILOT01,DS,01-704-1332,1,Randomized,Randomized,DISPOSITION EVENT,12-09-2013,12-09-2013,1
CDISCPILOT01,DS,01-704-1332,2,Adverse Event,Adverse Event,DISPOSITION EVENT,02-16-2014,02-16-2014,70
CDISCPILOT01,DS,01-704-1332,3,NA,NA,DISPOSITION EVENT,02-16-2014,02-16-2014,70
CDISCPILOT01,DS,01-704-1351,1,Randomized,Randomized,DISPOSITION EVENT,10-12-2013,10-12-2013,1
CDISCPILOT01,DS,01-704-1351,2,Protocol Completed,Completed,DISPOSITION EVENT,04-18-2014,04-18-2014,189
CDISCPILOT01,DS,01-704-1351,3,NA,NA,DISPOSITION EVENT,04-18-2014,04-18-2014,189
CDISCPILOT01,DS,01-704-1388,1,Randomized,Randomized,DISPOSITION EVENT,12-07-2012,12-07-2012,1
CDISCPILOT01,DS,01-704-1388,2,Protocol Completed,Completed,DISPOSITION EVENT,06-19-2013,06-19-2013,195
CDISCPILOT01,DS,01-704-1388,3,NA,NA,DISPOSITION EVENT,06-19-2013,06-19-2013,195
CDISCPILOT01,DS,01-704-1435,1,Randomized,Randomized,DISPOSITION EVENT,11-17-2012,11-17-2012,1
CDISCPILOT01,DS,01-704-1435,2,Withdrew Consent,Withdrawal by Subject,DISPOSITION EVENT,01-12-2013,01-12-2013,57
CDISCPILOT01,DS,01-704-1435,3,NA,NA,DISPOSITION EVENT,01-12-2013,01-12-2013,57
CDISCPILOT01,DS,01-704-1445,1,Randomized,Randomized,DISPOSITION EVENT,05-11-2014,05-11-2014,1
CDISCPILOT01,DS,01-704-1445,2,NA,NA,DISPOSITION EVENT,10-01-2014,10-01-2014,144
CDISCPILOT01,DS,01-704-1445,3,Death,Death,DISPOSITION EVENT,11-01-2014,11-01-2014,175
CDISCPILOT01,DS,01-705-1011,1,Screen Failure,Screen Failure,DISPOSITION EVENT,09-01-2013,09-01-2013,NA
CDISCPILOT01,DS,01-705-1018,1,NA,NA,DISPOSITION EVENT,06-30-2013,06-30-2013,-5
CDISCPILOT01,DS,01-705-1018,2,Randomized,Randomized,DISPOSITION EVENT,07-05-2013,07-05-2013,1
CDISCPILOT01,DS,01-705-1018,3,Patient Withdrew Consent,Withdrawal by Subject,DISPOSITION EVENT,07-12-2013,07-12-2013,8
CDISCPILOT01,DS,01-705-1031,1,Randomized,Randomized,DISPOSITION EVENT,11-27-2013,11-27-2013,1
CDISCPILOT01,DS,01-705-1031,2,Unable to Contact Patient (Lost to Follow-Up),Lost to Follow-Up,DISPOSITION EVENT,05-11-2014,05-11-2014,166
CDISCPILOT01,DS,01-705-1031,3,NA,NA,DISPOSITION EVENT,05-11-2014,05-11-2014,166
CDISCPILOT01,DS,01-705-1058,1,Screen Failure,Screen Failure,DISPOSITION EVENT,12-02-2013,12-02-2013,NA
CDISCPILOT01,DS,01-705-1059,1,Randomized,Randomized,DISPOSITION EVENT,08-05-2013,08-05-2013,1
CDISCPILOT01,DS,01-705-1059,2,Adverse Event,Adverse Event,DISPOSITION EVENT,12-05-2013,12-05-2013,123
CDISCPILOT01,DS,01-705-1059,3,NA,NA,DISPOSITION EVENT,12-05-2013,12-05-2013,123
CDISCPILOT01,DS,01-705-1059,4,NA,NA,DISPOSITION EVENT,02-06-2014,02-06-2014,186
CDISCPILOT01,DS,01-705-1112,1,Screen Failure,Screen Failure,DISPOSITION EVENT,02-23-2014,02-23-2014,NA
CDISCPILOT01,DS,01-705-1186,1,Randomized,Randomized,DISPOSITION EVENT,01-08-2014,01-08-2014,1
CDISCPILOT01,DS,01-705-1186,2,Hyperbilirubinemia,Physician Decision,DISPOSITION EVENT,02-07-2014,02-07-2014,31
CDISCPILOT01,DS,01-705-1186,3,NA,NA,DISPOSITION EVENT,02-07-2014,02-07-2014,31
CDISCPILOT01,DS,01-705-1199,1,Randomized,Randomized,DISPOSITION EVENT,09-16-2013,09-16-2013,1
CDISCPILOT01,DS,01-705-1199,2,Adverse Event,Adverse Event,DISPOSITION EVENT,09-29-2013,09-29-2013,14
CDISCPILOT01,DS,01-705-1199,3,NA,NA,DISPOSITION EVENT,09-29-2013,09-29-2013,14
CDISCPILOT01,DS,01-705-1243,1,Screen Failure,Screen Failure,DISPOSITION EVENT,02-26-2013,02-26-2013,NA
CDISCPILOT01,DS,01-705-1280,1,Randomized,Randomized,DISPOSITION EVENT,01-17-2014,01-17-2014,1
CDISCPILOT01,DS,01-705-1280,2,NA,NA,DISPOSITION EVENT,07-24-2014,07-24-2014,189
CDISCPILOT01,DS,01-705-1280,3,Protocol Completed,Completed,DISPOSITION EVENT,07-25-2014,07-25-2014,190
CDISCPILOT01,DS,01-705-1281,1,Randomized,Randomized,DISPOSITION EVENT,11-28-2013,11-28-2013,1
CDISCPILOT01,DS,01-705-1281,2,Adverse Event,Adverse Event,DISPOSITION EVENT,03-17-2014,03-17-2014,110
CDISCPILOT01,DS,01-705-1281,3,NA,NA,DISPOSITION EVENT,03-17-2014,03-17-2014,110
CDISCPILOT01,DS,01-705-1282,1,Randomized,Randomized,DISPOSITION EVENT,12-26-2012,12-26-2012,1
CDISCPILOT01,DS,01-705-1282,2,Protocol Completed,Completed,DISPOSITION EVENT,06-24-2013,06-24-2013,181
CDISCPILOT01,DS,01-705-1282,3,NA,NA,DISPOSITION EVENT,06-24-2013,06-24-2013,181
CDISCPILOT01,DS,01-705-1292,1,Randomized,Randomized,DISPOSITION EVENT,10-14-2013,10-14-2013,1
CDISCPILOT01,DS,01-705-1292,2,Protocol Completed,Completed,DISPOSITION EVENT,05-14-2014,05-14-2014,213
CDISCPILOT01,DS,01-705-1292,3,NA,NA,DISPOSITION EVENT,05-14-2014,05-14-2014,213
CDISCPILOT01,DS,01-705-1303,1,Randomized,Randomized,DISPOSITION EVENT,12-16-2013,12-16-2013,1
CDISCPILOT01,DS,01-705-1303,2,NA,NA,DISPOSITION EVENT,04-07-2014,04-07-2014,113
CDISCPILOT01,DS,01-705-1303,3,Adverse Event,Adverse Event,DISPOSITION EVENT,06-02-2014,06-02-2014,169
CDISCPILOT01,DS,01-705-1310,1,Randomized,Randomized,DISPOSITION EVENT,11-02-2013,11-02-2013,1
CDISCPILOT01,DS,01-705-1310,2,Adverse Event,Adverse Event,DISPOSITION EVENT,01-23-2014,01-23-2014,83
CDISCPILOT01,DS,01-705-1310,3,NA,NA,DISPOSITION EVENT,01-23-2014,01-23-2014,83
CDISCPILOT01,DS,01-705-1349,1,Randomized,Randomized,DISPOSITION EVENT,03-10-2013,03-10-2013,1
CDISCPILOT01,DS,01-705-1349,2,Protocol Completed,Completed,DISPOSITION EVENT,09-08-2013,09-08-2013,183
CDISCPILOT01,DS,01-705-1349,3,NA,NA,DISPOSITION EVENT,09-08-2013,09-08-2013,183
CDISCPILOT01,DS,01-705-1377,1,Randomized,Randomized,DISPOSITION EVENT,01-04-2014,01-04-2014,1
CDISCPILOT01,DS,01-705-1377,2,NA,NA,DISPOSITION EVENT,02-07-2014,02-07-2014,35
CDISCPILOT01,DS,01-705-1377,3,Patient Withdrew Consent,Withdrawal by Subject,DISPOSITION EVENT,03-07-2014,03-07-2014,63
CDISCPILOT01,DS,01-705-1382,1,NA,NA,DISPOSITION EVENT,05-09-2013,05-09-2013,-4
CDISCPILOT01,DS,01-705-1382,2,Protocol Entry Criteria not Met,Protocol Violation,DISPOSITION EVENT,05-13-2013,05-13-2013,1
CDISCPILOT01,DS,01-705-1382,3,Randomized,Randomized,DISPOSITION EVENT,05-13-2013,05-13-2013,1
CDISCPILOT01,DS,01-705-1393,1,Randomized,Randomized,DISPOSITION EVENT,09-07-2012,09-07-2012,1
CDISCPILOT01,DS,01-705-1393,2,Adverse Event,Adverse Event,DISPOSITION EVENT,02-20-2013,02-20-2013,167
CDISCPILOT01,DS,01-705-1393,3,NA,NA,DISPOSITION EVENT,02-20-2013,02-20-2013,167
CDISCPILOT01,DS,01-705-1421,1,Screen Failure,Screen Failure,DISPOSITION EVENT,01-14-2013,01-14-2013,NA
CDISCPILOT01,DS,01-705-1431,1,Randomized,Randomized,DISPOSITION EVENT,06-23-2013,06-23-2013,1
CDISCPILOT01,DS,01-705-1431,2,Protocol Completed,Completed,DISPOSITION EVENT,12-19-2013,12-19-2013,180
CDISCPILOT01,DS,01-705-1431,3,NA,NA,DISPOSITION EVENT,12-19-2013,12-19-2013,180
CDISCPILOT01,DS,01-706-1041,1,Randomized,Randomized,DISPOSITION EVENT,12-31-2013,12-31-2013,1
CDISCPILOT01,DS,01-706-1041,2,Protocol Completed,Completed,DISPOSITION EVENT,07-29-2014,07-29-2014,211
CDISCPILOT01,DS,01-706-1041,3,NA,NA,DISPOSITION EVENT,07-29-2014,07-29-2014,211
CDISCPILOT01,DS,01-706-1049,1,Randomized,Randomized,DISPOSITION EVENT,05-14-2013,05-14-2013,1
CDISCPILOT01,DS,01-706-1049,2,Adverse Event,Adverse Event,DISPOSITION EVENT,06-25-2013,06-25-2013,43
CDISCPILOT01,DS,01-706-1049,3,NA,NA,DISPOSITION EVENT,06-25-2013,06-25-2013,43
CDISCPILOT01,DS,01-706-1049,4,NA,NA,DISPOSITION EVENT,11-26-2013,11-26-2013,197
CDISCPILOT01,DS,01-706-1384,1,Randomized,Randomized,DISPOSITION EVENT,09-15-2012,09-15-2012,1
CDISCPILOT01,DS,01-706-1384,2,Adverse Event,Adverse Event,DISPOSITION EVENT,09-29-2012,09-29-2012,15
CDISCPILOT01,DS,01-706-1384,3,NA,NA,DISPOSITION EVENT,09-29-2012,09-29-2012,15
CDISCPILOT01,DS,01-706-1384,4,NA,NA,DISPOSITION EVENT,06-22-2013,06-22-2013,281
CDISCPILOT01,DS,01-707-1037,1,Randomized,Randomized,DISPOSITION EVENT,12-20-2013,12-20-2013,1
CDISCPILOT01,DS,01-707-1037,2,Withdraws Consent,Withdrawal by Subject,DISPOSITION EVENT,01-08-2014,01-08-2014,20
CDISCPILOT01,DS,01-707-1037,3,NA,NA,DISPOSITION EVENT,01-08-2014,01-08-2014,20
CDISCPILOT01,DS,01-707-1206,1,Randomized,Randomized,DISPOSITION EVENT,10-28-2013,10-28-2013,1
CDISCPILOT01,DS,01-707-1206,2,Protocol Completed,Completed,DISPOSITION EVENT,04-27-2014,04-27-2014,182
CDISCPILOT01,DS,01-707-1206,3,NA,NA,DISPOSITION EVENT,04-27-2014,04-27-2014,182
CDISCPILOT01,DS,01-707-1276,1,Screen Failure,Screen Failure,DISPOSITION EVENT,10-12-2012,10-12-2012,NA
CDISCPILOT01,DS,01-707-1430,1,Screen Failure,Screen Failure,DISPOSITION EVENT,02-14-2014,02-14-2014,NA
CDISCPILOT01,DS,01-707-1434,1,Screen Failure,Screen Failure,DISPOSITION EVENT,07-25-2013,07-25-2013,NA
CDISCPILOT01,DS,01-708-1013,1,Screen Failure,Screen Failure,DISPOSITION EVENT,10-13-2012,10-13-2012,NA
CDISCPILOT01,DS,01-708-1019,1,Randomized,Randomized,DISPOSITION EVENT,12-20-2013,12-20-2013,1
CDISCPILOT01,DS,01-708-1019,2,Adverse Event,Adverse Event,DISPOSITION EVENT,01-23-2014,01-23-2014,35
CDISCPILOT01,DS,01-708-1019,3,NA,NA,DISPOSITION EVENT,01-23-2014,01-23-2014,35
CDISCPILOT01,DS,01-708-1032,1,Randomized,Randomized,DISPOSITION EVENT,02-09-2013,02-09-2013,1
CDISCPILOT01,DS,01-708-1032,2,Adverse Event,Adverse Event,DISPOSITION EVENT,03-09-2013,03-09-2013,29
CDISCPILOT01,DS,01-708-1032,3,NA,NA,DISPOSITION EVENT,03-09-2013,03-09-2013,29
CDISCPILOT01,DS,01-708-1054,1,Screen Failure,Screen Failure,DISPOSITION EVENT,02-14-2014,02-14-2014,NA
CDISCPILOT01,DS,01-708-1067,1,Screen Failure,Screen Failure,DISPOSITION EVENT,02-07-2013,02-07-2013,NA
CDISCPILOT01,DS,01-708-1084,1,Randomized,Randomized,DISPOSITION EVENT,05-09-2013,05-09-2013,1
CDISCPILOT01,DS,01-708-1084,2,Protocol Completed,Completed,DISPOSITION EVENT,11-11-2013,11-11-2013,187
CDISCPILOT01,DS,01-708-1084,3,NA,NA,DISPOSITION EVENT,11-11-2013,11-11-2013,187
CDISCPILOT01,DS,01-708-1087,1,Randomized,Randomized,DISPOSITION EVENT,10-22-2012,10-22-2012,1
CDISCPILOT01,DS,01-708-1087,2,Protocol Completed,Completed,DISPOSITION EVENT,04-28-2013,04-28-2013,189
CDISCPILOT01,DS,01-708-1087,3,NA,NA,DISPOSITION EVENT,04-28-2013,04-28-2013,189
CDISCPILOT01,DS,01-708-1104,1,Screen Failure,Screen Failure,DISPOSITION EVENT,01-23-2014,01-23-2014,NA
CDISCPILOT01,DS,01-708-1158,1,Randomized,Randomized,DISPOSITION EVENT,02-08-2014,02-08-2014,1
CDISCPILOT01,DS,01-708-1158,2,Adverse Event,Adverse Event,DISPOSITION EVENT,03-22-2014,03-22-2014,43
CDISCPILOT01,DS,01-708-1158,3,NA,NA,DISPOSITION EVENT,03-22-2014,03-22-2014,43
CDISCPILOT01,DS,01-708-1171,1,Randomized,Randomized,DISPOSITION EVENT,12-06-2012,12-06-2012,1
CDISCPILOT01,DS,01-708-1171,2,NA,NA,DISPOSITION EVENT,06-03-2013,06-03-2013,180
CDISCPILOT01,DS,01-708-1171,3,Protocol Completed,Completed,DISPOSITION EVENT,06-04-2013,06-04-2013,181
CDISCPILOT01,DS,01-708-1178,1,Randomized,Randomized,DISPOSITION EVENT,12-29-2013,12-29-2013,1
CDISCPILOT01,DS,01-708-1178,2,Dr Put Pt on an Excluded Medication,Physician Decision,DISPOSITION EVENT,04-06-2014,04-06-2014,99
CDISCPILOT01,DS,01-708-1178,3,NA,NA,DISPOSITION EVENT,04-06-2014,04-06-2014,99
CDISCPILOT01,DS,01-708-1184,1,Screen Failure,Screen Failure,DISPOSITION EVENT,01-14-2013,01-14-2013,NA
CDISCPILOT01,DS,01-708-1213,1,Randomized,Randomized,DISPOSITION EVENT,02-09-2013,02-09-2013,1
CDISCPILOT01,DS,01-708-1213,2,NA,NA,DISPOSITION EVENT,02-22-2013,02-22-2013,14
CDISCPILOT01,DS,01-708-1213,3,Adverse Event,Adverse Event,DISPOSITION EVENT,02-26-2013,02-26-2013,18
CDISCPILOT01,DS,01-708-1216,1,Randomized,Randomized,DISPOSITION EVENT,10-24-2012,10-24-2012,1
CDISCPILOT01,DS,01-708-1216,2,Adverse Event,Adverse Event,DISPOSITION EVENT,12-06-2012,12-06-2012,44
CDISCPILOT01,DS,01-708-1216,3,NA,NA,DISPOSITION EVENT,12-06-2012,12-06-2012,44
CDISCPILOT01,DS,01-708-1236,1,NA,NA,DISPOSITION EVENT,09-19-2013,09-19-2013,-2
CDISCPILOT01,DS,01-708-1236,2,Randomized,Randomized,DISPOSITION EVENT,09-21-2013,09-21-2013,1
CDISCPILOT01,DS,01-708-1236,3,Patient Withdrew Consent,Withdrawal by Subject,DISPOSITION EVENT,09-26-2013,09-26-2013,6
CDISCPILOT01,DS,01-708-1242,1,Screen Failure,Screen Failure,DISPOSITION EVENT,08-13-2012,08-13-2012,NA
CDISCPILOT01,DS,01-708-1253,1,Randomized,Randomized,DISPOSITION EVENT,05-07-2013,05-07-2013,1
CDISCPILOT01,DS,01-708-1253,2,NA,NA,DISPOSITION EVENT,11-04-2013,11-04-2013,182
CDISCPILOT01,DS,01-708-1253,3,Protocol Completed,Completed,DISPOSITION EVENT,11-05-2013,11-05-2013,183
CDISCPILOT01,DS,01-708-1272,1,Randomized,Randomized,DISPOSITION EVENT,02-06-2013,02-06-2013,1
CDISCPILOT01,DS,01-708-1272,2,Patch Discomfort,Withdrawal by Subject,DISPOSITION EVENT,04-04-2013,04-04-2013,58
CDISCPILOT01,DS,01-708-1272,3,NA,NA,DISPOSITION EVENT,04-04-2013,04-04-2013,58
CDISCPILOT01,DS,01-708-1286,1,Randomized,Randomized,DISPOSITION EVENT,09-10-2013,09-10-2013,1
CDISCPILOT01,DS,01-708-1286,2,Protocol Completed,Completed,DISPOSITION EVENT,03-08-2014,03-08-2014,180
CDISCPILOT01,DS,01-708-1286,3,NA,NA,DISPOSITION EVENT,03-08-2014,03-08-2014,180
CDISCPILOT01,DS,01-708-1296,1,Randomized,Randomized,DISPOSITION EVENT,06-14-2013,06-14-2013,1
CDISCPILOT01,DS,01-708-1296,2,Protocol Completed,Completed,DISPOSITION EVENT,12-12-2013,12-12-2013,182
CDISCPILOT01,DS,01-708-1296,3,NA,NA,DISPOSITION EVENT,12-12-2013,12-12-2013,182
CDISCPILOT01,DS,01-708-1297,1,Randomized,Randomized,DISPOSITION EVENT,01-25-2013,01-25-2013,1
CDISCPILOT01,DS,01-708-1297,2,Adverse Event,Adverse Event,DISPOSITION EVENT,05-08-2013,05-08-2013,104
CDISCPILOT01,DS,01-708-1297,3,NA,NA,DISPOSITION EVENT,05-08-2013,05-08-2013,104
CDISCPILOT01,DS,01-708-1316,1,Randomized,Randomized,DISPOSITION EVENT,08-23-2013,08-23-2013,1
CDISCPILOT01,DS,01-708-1316,2,Protocol Completed,Completed,DISPOSITION EVENT,03-01-2014,03-01-2014,191
CDISCPILOT01,DS,01-708-1316,3,NA,NA,DISPOSITION EVENT,03-01-2014,03-01-2014,191
CDISCPILOT01,DS,01-708-1336,1,Randomized,Randomized,DISPOSITION EVENT,12-07-2012,12-07-2012,1
CDISCPILOT01,DS,01-708-1336,2,Protocol Completed,Completed,DISPOSITION EVENT,06-05-2013,06-05-2013,181
CDISCPILOT01,DS,01-708-1336,3,NA,NA,DISPOSITION EVENT,06-05-2013,06-05-2013,181
CDISCPILOT01,DS,01-708-1342,1,Randomized,Randomized,DISPOSITION EVENT,12-29-2012,12-29-2012,1
CDISCPILOT01,DS,01-708-1342,2,Protocol Completed,Completed,DISPOSITION EVENT,06-28-2013,06-28-2013,182
CDISCPILOT01,DS,01-708-1342,3,NA,NA,DISPOSITION EVENT,06-28-2013,06-28-2013,182
CDISCPILOT01,DS,01-708-1347,1,Randomized,Randomized,DISPOSITION EVENT,04-20-2013,04-20-2013,1
CDISCPILOT01,DS,01-708-1347,2,Adverse Event,Adverse Event,DISPOSITION EVENT,06-18-2013,06-18-2013,60
CDISCPILOT01,DS,01-708-1347,3,NA,NA,DISPOSITION EVENT,06-18-2013,06-18-2013,60
CDISCPILOT01,DS,01-708-1348,1,Randomized,Randomized,DISPOSITION EVENT,08-05-2013,08-05-2013,1
CDISCPILOT01,DS,01-708-1348,2,Protocol Completed,Completed,DISPOSITION EVENT,02-13-2014,02-13-2014,193
CDISCPILOT01,DS,01-708-1348,3,NA,NA,DISPOSITION EVENT,02-13-2014,02-13-2014,193
CDISCPILOT01,DS,01-708-1352,1,Screen Failure,Screen Failure,DISPOSITION EVENT,09-16-2013,09-16-2013,NA
CDISCPILOT01,DS,01-708-1353,1,Randomized,Randomized,DISPOSITION EVENT,07-04-2013,07-04-2013,1
CDISCPILOT01,DS,01-708-1353,2,Adverse Event,Adverse Event,DISPOSITION EVENT,09-10-2013,09-10-2013,69
CDISCPILOT01,DS,01-708-1353,3,NA,NA,DISPOSITION EVENT,09-10-2013,09-10-2013,69
CDISCPILOT01,DS,01-708-1372,1,NA,NA,DISPOSITION EVENT,04-03-2013,04-03-2013,-9
CDISCPILOT01,DS,01-708-1372,2,Randomized,Randomized,DISPOSITION EVENT,04-12-2013,04-12-2013,1
CDISCPILOT01,DS,01-708-1372,3,Protocol Entry Criteria not Met,Protocol Violation,DISPOSITION EVENT,05-10-2013,05-10-2013,29
CDISCPILOT01,DS,01-708-1378,1,Randomized,Randomized,DISPOSITION EVENT,09-03-2013,09-03-2013,1
CDISCPILOT01,DS,01-708-1378,2,Sponsor Decision (Study or Patient Discontinued by the Sponsor),Study Terminated by Sponsor,DISPOSITION EVENT,01-28-2014,01-28-2014,148
CDISCPILOT01,DS,01-708-1378,3,NA,NA,DISPOSITION EVENT,01-28-2014,01-28-2014,148
CDISCPILOT01,DS,01-708-1406,1,Randomized,Randomized,DISPOSITION EVENT,12-26-2013,12-26-2013,1
CDISCPILOT01,DS,01-708-1406,2,Protocol Completed,Completed,DISPOSITION EVENT,07-02-2014,07-02-2014,189
CDISCPILOT01,DS,01-708-1406,3,NA,NA,DISPOSITION EVENT,07-02-2014,07-02-2014,189
CDISCPILOT01,DS,01-708-1428,1,Randomized,Randomized,DISPOSITION EVENT,11-09-2013,11-09-2013,1
CDISCPILOT01,DS,01-708-1428,2,Adverse Event,Adverse Event,DISPOSITION EVENT,01-31-2014,01-31-2014,84
CDISCPILOT01,DS,01-708-1428,3,NA,NA,DISPOSITION EVENT,01-31-2014,01-31-2014,84
CDISCPILOT01,DS,01-709-1001,1,Randomized,Randomized,DISPOSITION EVENT,10-08-2013,10-08-2013,1
CDISCPILOT01,DS,01-709-1001,2,NA,NA,DISPOSITION EVENT,03-17-2014,03-17-2014,161
CDISCPILOT01,DS,01-709-1001,3,Protocol Completed,Completed,DISPOSITION EVENT,04-08-2014,04-08-2014,183
CDISCPILOT01,DS,01-709-1007,1,Randomized,Randomized,DISPOSITION EVENT,07-31-2012,07-31-2012,1
CDISCPILOT01,DS,01-709-1007,2,Adverse Event,Adverse Event,DISPOSITION EVENT,09-01-2012,09-01-2012,33
CDISCPILOT01,DS,01-709-1007,3,NA,NA,DISPOSITION EVENT,09-01-2012,09-01-2012,33
CDISCPILOT01,DS,01-709-1020,1,Randomized,Randomized,DISPOSITION EVENT,12-01-2012,12-01-2012,1
CDISCPILOT01,DS,01-709-1020,2,Protocol Completed,Completed,DISPOSITION EVENT,06-01-2013,06-01-2013,183
CDISCPILOT01,DS,01-709-1020,3,NA,NA,DISPOSITION EVENT,06-01-2013,06-01-2013,183
CDISCPILOT01,DS,01-709-1029,1,Randomized,Randomized,DISPOSITION EVENT,12-25-2012,12-25-2012,1
CDISCPILOT01,DS,01-709-1029,2,Protocol Completed,Completed,DISPOSITION EVENT,06-26-2013,06-26-2013,184
CDISCPILOT01,DS,01-709-1029,3,NA,NA,DISPOSITION EVENT,06-26-2013,06-26-2013,184
CDISCPILOT01,DS,01-709-1081,1,Randomized,Randomized,DISPOSITION EVENT,01-18-2014,01-18-2014,1
CDISCPILOT01,DS,01-709-1081,2,Adverse Event,Adverse Event,DISPOSITION EVENT,05-10-2014,05-10-2014,113
CDISCPILOT01,DS,01-709-1081,3,NA,NA,DISPOSITION EVENT,05-10-2014,05-10-2014,113
CDISCPILOT01,DS,01-709-1088,1,Randomized,Randomized,DISPOSITION EVENT,04-12-2014,04-12-2014,1
CDISCPILOT01,DS,01-709-1088,2,Protocol Completed,Completed,DISPOSITION EVENT,10-09-2014,10-09-2014,181
CDISCPILOT01,DS,01-709-1088,3,NA,NA,DISPOSITION EVENT,10-09-2014,10-09-2014,181
CDISCPILOT01,DS,01-709-1099,1,Randomized,Randomized,DISPOSITION EVENT,10-25-2013,10-25-2013,1
CDISCPILOT01,DS,01-709-1099,2,Protocol Completed,Completed,DISPOSITION EVENT,04-25-2014,04-25-2014,183
CDISCPILOT01,DS,01-709-1099,3,NA,NA,DISPOSITION EVENT,04-25-2014,04-25-2014,183
CDISCPILOT01,DS,01-709-1102,1,Randomized,Randomized,DISPOSITION EVENT,01-15-2013,01-15-2013,1
CDISCPILOT01,DS,01-709-1102,2,Adverse Event,Adverse Event,DISPOSITION EVENT,03-31-2013,03-31-2013,76
CDISCPILOT01,DS,01-709-1102,3,NA,NA,DISPOSITION EVENT,03-31-2013,03-31-2013,76
CDISCPILOT01,DS,01-709-1168,1,Randomized,Randomized,DISPOSITION EVENT,08-02-2013,08-02-2013,1
CDISCPILOT01,DS,01-709-1168,2,Adverse Event,Adverse Event,DISPOSITION EVENT,09-27-2013,09-27-2013,57
CDISCPILOT01,DS,01-709-1168,3,NA,NA,DISPOSITION EVENT,09-27-2013,09-27-2013,57
CDISCPILOT01,DS,01-709-1217,1,Randomized,Randomized,DISPOSITION EVENT,03-04-2013,03-04-2013,1
CDISCPILOT01,DS,01-709-1217,2,Adverse Event,Adverse Event,DISPOSITION EVENT,06-25-2013,06-25-2013,114
CDISCPILOT01,DS,01-709-1217,3,NA,NA,DISPOSITION EVENT,06-25-2013,06-25-2013,114
CDISCPILOT01,DS,01-709-1224,1,Screen Failure,Screen Failure,DISPOSITION EVENT,11-18-2013,11-18-2013,NA
CDISCPILOT01,DS,01-709-1237,1,Screen Failure,Screen Failure,DISPOSITION EVENT,01-17-2014,01-17-2014,NA
CDISCPILOT01,DS,01-709-1238,1,Randomized,Randomized,DISPOSITION EVENT,05-15-2013,05-15-2013,1
CDISCPILOT01,DS,01-709-1238,2,Adverse Event,Adverse Event,DISPOSITION EVENT,08-07-2013,08-07-2013,85
CDISCPILOT01,DS,01-709-1238,3,NA,NA,DISPOSITION EVENT,08-07-2013,08-07-2013,85
CDISCPILOT01,DS,01-709-1259,1,Randomized,Randomized,DISPOSITION EVENT,01-26-2013,01-26-2013,1
CDISCPILOT01,DS,01-709-1259,2,"Lack of Efficacy, Patient Caregiver Perception",Lack of Efficacy,DISPOSITION EVENT,06-13-2013,06-13-2013,139
CDISCPILOT01,DS,01-709-1259,3,NA,NA,DISPOSITION EVENT,06-13-2013,06-13-2013,139
CDISCPILOT01,DS,01-709-1285,1,Randomized,Randomized,DISPOSITION EVENT,03-24-2013,03-24-2013,1
CDISCPILOT01,DS,01-709-1285,2,Sponsor Decision (Study or Patient Discontinued by the Sponsor),Study Terminated by Sponsor,DISPOSITION EVENT,05-31-2013,05-31-2013,69
CDISCPILOT01,DS,01-709-1285,3,NA,NA,DISPOSITION EVENT,05-31-2013,05-31-2013,69
CDISCPILOT01,DS,01-709-1301,1,Randomized,Randomized,DISPOSITION EVENT,07-19-2013,07-19-2013,1
CDISCPILOT01,DS,01-709-1301,2,Protocol Completed,Completed,DISPOSITION EVENT,01-17-2014,01-17-2014,183
CDISCPILOT01,DS,01-709-1301,3,NA,NA,DISPOSITION EVENT,01-17-2014,01-17-2014,183
CDISCPILOT01,DS,01-709-1306,1,Randomized,Randomized,DISPOSITION EVENT,02-03-2014,02-03-2014,1
CDISCPILOT01,DS,01-709-1306,2,Adverse Event,Adverse Event,DISPOSITION EVENT,06-25-2014,06-25-2014,143
CDISCPILOT01,DS,01-709-1306,3,NA,NA,DISPOSITION EVENT,06-25-2014,06-25-2014,143
CDISCPILOT01,DS,01-709-1309,1,Randomized,Randomized,DISPOSITION EVENT,06-19-2013,06-19-2013,1
CDISCPILOT01,DS,01-709-1309,2,Protocol Completed,Completed,DISPOSITION EVENT,12-19-2013,12-19-2013,184
CDISCPILOT01,DS,01-709-1309,3,NA,NA,DISPOSITION EVENT,12-19-2013,12-19-2013,184
CDISCPILOT01,DS,01-709-1312,1,Randomized,Randomized,DISPOSITION EVENT,04-20-2014,04-20-2014,1
CDISCPILOT01,DS,01-709-1312,2,Protocol Completed,Completed,DISPOSITION EVENT,10-19-2014,10-19-2014,183
CDISCPILOT01,DS,01-709-1312,3,NA,NA,DISPOSITION EVENT,10-19-2014,10-19-2014,183
CDISCPILOT01,DS,01-709-1326,1,Randomized,Randomized,DISPOSITION EVENT,04-05-2013,04-05-2013,1
CDISCPILOT01,DS,01-709-1326,2,Protocol Completed,Completed,DISPOSITION EVENT,10-02-2013,10-02-2013,181
CDISCPILOT01,DS,01-709-1326,3,NA,NA,DISPOSITION EVENT,10-02-2013,10-02-2013,181
CDISCPILOT01,DS,01-709-1329,1,Randomized,Randomized,DISPOSITION EVENT,08-15-2013,08-15-2013,1
CDISCPILOT01,DS,01-709-1329,2,Caregiver Burden,Withdrawal by Subject,DISPOSITION EVENT,08-29-2013,08-29-2013,15
CDISCPILOT01,DS,01-709-1329,3,NA,NA,DISPOSITION EVENT,08-29-2013,08-29-2013,15
CDISCPILOT01,DS,01-709-1339,1,Randomized,Randomized,DISPOSITION EVENT,12-23-2012,12-23-2012,1
CDISCPILOT01,DS,01-709-1339,2,Protocol Completed,Completed,DISPOSITION EVENT,06-24-2013,06-24-2013,184
CDISCPILOT01,DS,01-709-1339,3,NA,NA,DISPOSITION EVENT,06-24-2013,06-24-2013,184
CDISCPILOT01,DS,01-709-1424,1,Randomized,Randomized,DISPOSITION EVENT,03-03-2013,03-03-2013,1
CDISCPILOT01,DS,01-709-1424,2,Adverse Event,Adverse Event,DISPOSITION EVENT,03-08-2013,03-08-2013,6
CDISCPILOT01,DS,01-709-1424,3,NA,NA,DISPOSITION EVENT,03-17-2013,03-17-2013,15
CDISCPILOT01,DS,01-710-1002,1,Randomized,Randomized,DISPOSITION EVENT,01-14-2014,01-14-2014,1
CDISCPILOT01,DS,01-710-1002,2,Adverse Event,Adverse Event,DISPOSITION EVENT,01-18-2014,01-18-2014,5
CDISCPILOT01,DS,01-710-1002,3,NA,NA,DISPOSITION EVENT,01-18-2014,01-18-2014,5
CDISCPILOT01,DS,01-710-1006,1,Randomized,Randomized,DISPOSITION EVENT,02-10-2013,02-10-2013,1
CDISCPILOT01,DS,01-710-1006,2,Protocol Completed,Completed,DISPOSITION EVENT,08-10-2013,08-10-2013,182
CDISCPILOT01,DS,01-710-1006,3,NA,NA,DISPOSITION EVENT,08-10-2013,08-10-2013,182
CDISCPILOT01,DS,01-710-1021,1,Randomized,Randomized,DISPOSITION EVENT,09-27-2013,09-27-2013,1
CDISCPILOT01,DS,01-710-1021,2,Adverse Event,Adverse Event,DISPOSITION EVENT,11-12-2013,11-12-2013,47
CDISCPILOT01,DS,01-710-1021,3,NA,NA,DISPOSITION EVENT,11-12-2013,11-12-2013,47
CDISCPILOT01,DS,01-710-1027,1,Randomized,Randomized,DISPOSITION EVENT,02-28-2014,02-28-2014,1
CDISCPILOT01,DS,01-710-1027,2,Protocol Completed,Completed,DISPOSITION EVENT,08-29-2014,08-29-2014,183
CDISCPILOT01,DS,01-710-1027,3,NA,NA,DISPOSITION EVENT,08-29-2014,08-29-2014,183
CDISCPILOT01,DS,01-710-1045,1,Randomized,Randomized,DISPOSITION EVENT,06-03-2013,06-03-2013,1
CDISCPILOT01,DS,01-710-1045,2,Adverse Event,Adverse Event,DISPOSITION EVENT,08-17-2013,08-17-2013,76
CDISCPILOT01,DS,01-710-1045,3,NA,NA,DISPOSITION EVENT,08-17-2013,08-17-2013,76
CDISCPILOT01,DS,01-710-1053,1,Randomized,Randomized,DISPOSITION EVENT,12-26-2012,12-26-2012,1
CDISCPILOT01,DS,01-710-1053,2,Adverse Event,Adverse Event,DISPOSITION EVENT,02-15-2013,02-15-2013,52
CDISCPILOT01,DS,01-710-1053,3,NA,NA,DISPOSITION EVENT,02-26-2013,02-26-2013,63
CDISCPILOT01,DS,01-710-1060,1,Randomized,Randomized,DISPOSITION EVENT,01-01-2013,01-01-2013,1
CDISCPILOT01,DS,01-710-1060,2,Protocol Completed,Completed,DISPOSITION EVENT,07-05-2013,07-05-2013,186
CDISCPILOT01,DS,01-710-1060,3,NA,NA,DISPOSITION EVENT,07-05-2013,07-05-2013,186
CDISCPILOT01,DS,01-710-1070,1,Randomized,Randomized,DISPOSITION EVENT,09-08-2012,09-08-2012,1
CDISCPILOT01,DS,01-710-1070,2,NA,NA,DISPOSITION EVENT,12-28-2012,12-28-2012,112
CDISCPILOT01,DS,01-710-1070,3,Adverse Event,Adverse Event,DISPOSITION EVENT,02-23-2013,02-23-2013,169
CDISCPILOT01,DS,01-710-1077,1,Randomized,Randomized,DISPOSITION EVENT,11-17-2013,11-17-2013,1
CDISCPILOT01,DS,01-710-1077,2,Protocol Completed,Completed,DISPOSITION EVENT,05-18-2014,05-18-2014,183
CDISCPILOT01,DS,01-710-1077,3,NA,NA,DISPOSITION EVENT,05-18-2014,05-18-2014,183
CDISCPILOT01,DS,01-710-1078,1,Randomized,Randomized,DISPOSITION EVENT,09-17-2013,09-17-2013,1
CDISCPILOT01,DS,01-710-1078,2,Protocol Completed,Completed,DISPOSITION EVENT,03-23-2014,03-23-2014,188
CDISCPILOT01,DS,01-710-1078,3,NA,NA,DISPOSITION EVENT,03-23-2014,03-23-2014,188
CDISCPILOT01,DS,01-710-1083,1,NA,NA,DISPOSITION EVENT,07-09-2013,07-09-2013,-13
CDISCPILOT01,DS,01-710-1083,2,Randomized,Randomized,DISPOSITION EVENT,07-22-2013,07-22-2013,1
CDISCPILOT01,DS,01-710-1083,3,Death,Death,DISPOSITION EVENT,08-03-2013,08-02-2013,12
CDISCPILOT01,DS,01-710-1129,1,Screen Failure,Screen Failure,DISPOSITION EVENT,03-05-2013,03-05-2013,NA
CDISCPILOT01,DS,01-710-1137,1,Randomized,Randomized,DISPOSITION EVENT,10-11-2013,10-11-2013,1
CDISCPILOT01,DS,01-710-1137,2,Adverse Event,Adverse Event,DISPOSITION EVENT,11-13-2013,11-13-2013,34
CDISCPILOT01,DS,01-710-1137,3,NA,NA,DISPOSITION EVENT,11-13-2013,11-13-2013,34
CDISCPILOT01,DS,01-710-1142,1,Randomized,Randomized,DISPOSITION EVENT,10-02-2012,10-02-2012,1
CDISCPILOT01,DS,01-710-1142,2,Adverse Event,Adverse Event,DISPOSITION EVENT,10-23-2012,10-23-2012,22
CDISCPILOT01,DS,01-710-1142,3,NA,NA,DISPOSITION EVENT,10-23-2012,10-23-2012,22
CDISCPILOT01,DS,01-710-1149,1,Screen Failure,Screen Failure,DISPOSITION EVENT,11-16-2013,11-16-2013,NA
CDISCPILOT01,DS,01-710-1154,1,Randomized,Randomized,DISPOSITION EVENT,03-29-2014,03-29-2014,1
CDISCPILOT01,DS,01-710-1154,2,Adverse Event,Adverse Event,DISPOSITION EVENT,05-09-2014,05-09-2014,42
CDISCPILOT01,DS,01-710-1154,3,NA,NA,DISPOSITION EVENT,05-09-2014,05-09-2014,42
CDISCPILOT01,DS,01-710-1166,1,Randomized,Randomized,DISPOSITION EVENT,11-30-2012,11-30-2012,1
CDISCPILOT01,DS,01-710-1166,2,Adverse Event,Adverse Event,DISPOSITION EVENT,03-30-2013,03-30-2013,121
CDISCPILOT01,DS,01-710-1166,3,NA,NA,DISPOSITION EVENT,03-30-2013,03-30-2013,121
CDISCPILOT01,DS,01-710-1183,1,Randomized,Randomized,DISPOSITION EVENT,11-16-2013,11-16-2013,1
CDISCPILOT01,DS,01-710-1183,2,Protocol Completed,Completed,DISPOSITION EVENT,05-17-2014,05-17-2014,183
CDISCPILOT01,DS,01-710-1183,3,NA,NA,DISPOSITION EVENT,05-17-2014,05-17-2014,183
CDISCPILOT01,DS,01-710-1187,1,Randomized,Randomized,DISPOSITION EVENT,11-10-2012,11-10-2012,1
CDISCPILOT01,DS,01-710-1187,2,Protocol Completed,Completed,DISPOSITION EVENT,05-12-2013,05-12-2013,184
CDISCPILOT01,DS,01-710-1187,3,NA,NA,DISPOSITION EVENT,05-12-2013,05-12-2013,184
CDISCPILOT01,DS,01-710-1235,1,Randomized,Randomized,DISPOSITION EVENT,09-26-2012,09-26-2012,1
CDISCPILOT01,DS,01-710-1235,2,Protocol Completed,Completed,DISPOSITION EVENT,03-27-2013,03-27-2013,183
CDISCPILOT01,DS,01-710-1235,3,NA,NA,DISPOSITION EVENT,03-27-2013,03-27-2013,183
CDISCPILOT01,DS,01-710-1249,1,Randomized,Randomized,DISPOSITION EVENT,12-28-2013,12-28-2013,1
CDISCPILOT01,DS,01-710-1249,2,Protocol Completed,Completed,DISPOSITION EVENT,06-28-2014,06-28-2014,183
CDISCPILOT01,DS,01-710-1249,3,NA,NA,DISPOSITION EVENT,06-28-2014,06-28-2014,183
CDISCPILOT01,DS,01-710-1257,1,Screen Failure,Screen Failure,DISPOSITION EVENT,11-29-2013,11-29-2013,NA
CDISCPILOT01,DS,01-710-1264,1,Randomized,Randomized,DISPOSITION EVENT,06-13-2013,06-13-2013,1
CDISCPILOT01,DS,01-710-1264,2,Adverse Event,Adverse Event,DISPOSITION EVENT,10-12-2013,10-12-2013,122
CDISCPILOT01,DS,01-710-1264,3,NA,NA,DISPOSITION EVENT,10-12-2013,10-12-2013,122
CDISCPILOT01,DS,01-710-1270,1,Randomized,Randomized,DISPOSITION EVENT,02-12-2014,02-12-2014,1
CDISCPILOT01,DS,01-710-1270,2,Adverse Event,Adverse Event,DISPOSITION EVENT,03-01-2014,03-01-2014,18
CDISCPILOT01,DS,01-710-1270,3,NA,NA,DISPOSITION EVENT,03-01-2014,03-01-2014,18
CDISCPILOT01,DS,01-710-1271,1,Randomized,Randomized,DISPOSITION EVENT,09-27-2012,09-27-2012,1
CDISCPILOT01,DS,01-710-1271,2,NA,NA,DISPOSITION EVENT,11-08-2012,11-08-2012,43
CDISCPILOT01,DS,01-710-1271,3,Adverse Event,Adverse Event,DISPOSITION EVENT,12-02-2012,12-02-2012,67
CDISCPILOT01,DS,01-710-1278,1,Randomized,Randomized,DISPOSITION EVENT,12-24-2012,12-24-2012,1
CDISCPILOT01,DS,01-710-1278,2,Adverse Event,Adverse Event,DISPOSITION EVENT,03-03-2013,03-03-2013,70
CDISCPILOT01,DS,01-710-1278,3,NA,NA,DISPOSITION EVENT,03-07-2013,03-07-2013,74
CDISCPILOT01,DS,01-710-1300,1,Randomized,Randomized,DISPOSITION EVENT,12-15-2012,12-15-2012,1
CDISCPILOT01,DS,01-710-1300,2,Adverse Event,Adverse Event,DISPOSITION EVENT,02-19-2013,02-19-2013,67
CDISCPILOT01,DS,01-710-1300,3,NA,NA,DISPOSITION EVENT,02-19-2013,02-19-2013,67
CDISCPILOT01,DS,01-710-1314,1,Randomized,Randomized,DISPOSITION EVENT,04-24-2013,04-24-2013,1
CDISCPILOT01,DS,01-710-1314,2,NA,NA,DISPOSITION EVENT,05-23-2013,05-23-2013,30
CDISCPILOT01,DS,01-710-1314,3,Patient Refuses to Continue,Withdrawal by Subject,DISPOSITION EVENT,05-25-2013,05-25-2013,32
CDISCPILOT01,DS,01-710-1315,1,Randomized,Randomized,DISPOSITION EVENT,02-27-2013,02-27-2013,1
CDISCPILOT01,DS,01-710-1315,2,Adverse Event,Adverse Event,DISPOSITION EVENT,07-16-2013,07-16-2013,140
CDISCPILOT01,DS,01-710-1315,3,NA,NA,DISPOSITION EVENT,07-16-2013,07-16-2013,140
CDISCPILOT01,DS,01-710-1337,1,Screen Failure,Screen Failure,DISPOSITION EVENT,12-30-2013,12-30-2013,NA
CDISCPILOT01,DS,01-710-1354,1,Randomized,Randomized,DISPOSITION EVENT,11-11-2012,11-11-2012,1
CDISCPILOT01,DS,01-710-1354,2,Protocol Completed,Completed,DISPOSITION EVENT,05-01-2013,05-01-2013,172
CDISCPILOT01,DS,01-710-1354,3,NA,NA,DISPOSITION EVENT,05-01-2013,05-01-2013,172
CDISCPILOT01,DS,01-710-1358,1,Randomized,Randomized,DISPOSITION EVENT,09-17-2012,09-17-2012,1
CDISCPILOT01,DS,01-710-1358,2,NA,NA,DISPOSITION EVENT,02-06-2013,02-06-2013,143
CDISCPILOT01,DS,01-710-1358,3,Caregiver Was Hospitalized;see Comments,Withdrawal by Subject,DISPOSITION EVENT,03-12-2013,03-12-2013,177
CDISCPILOT01,DS,01-710-1368,1,Randomized,Randomized,DISPOSITION EVENT,10-23-2013,10-23-2013,1
CDISCPILOT01,DS,01-710-1368,2,Protocol Completed,Completed,DISPOSITION EVENT,04-24-2014,04-24-2014,184
CDISCPILOT01,DS,01-710-1368,3,NA,NA,DISPOSITION EVENT,04-24-2014,04-24-2014,184
CDISCPILOT01,DS,01-710-1376,1,Screen Failure,Screen Failure,DISPOSITION EVENT,04-21-2014,04-21-2014,NA
CDISCPILOT01,DS,01-710-1380,1,Screen Failure,Screen Failure,DISPOSITION EVENT,06-02-2013,06-02-2013,NA
CDISCPILOT01,DS,01-710-1385,1,Randomized,Randomized,DISPOSITION EVENT,10-29-2012,10-29-2012,1
CDISCPILOT01,DS,01-710-1385,2,Adverse Event,Adverse Event,DISPOSITION EVENT,02-18-2013,02-18-2013,113
CDISCPILOT01,DS,01-710-1385,3,NA,NA,DISPOSITION EVENT,02-18-2013,02-18-2013,113
CDISCPILOT01,DS,01-710-1408,1,Randomized,Randomized,DISPOSITION EVENT,01-05-2013,01-05-2013,1
CDISCPILOT01,DS,01-710-1408,2,Protocol Completed,Completed,DISPOSITION EVENT,07-12-2013,07-12-2013,189
CDISCPILOT01,DS,01-710-1408,3,NA,NA,DISPOSITION EVENT,07-12-2013,07-12-2013,189
CDISCPILOT01,DS,01-710-1443,1,Screen Failure,Screen Failure,DISPOSITION EVENT,12-13-2013,12-13-2013,NA
CDISCPILOT01,DS,01-711-1012,1,Randomized,Randomized,DISPOSITION EVENT,04-03-2013,04-03-2013,1
CDISCPILOT01,DS,01-711-1012,2,Adverse Event,Adverse Event,DISPOSITION EVENT,05-02-2013,05-02-2013,30
CDISCPILOT01,DS,01-711-1012,3,NA,NA,DISPOSITION EVENT,05-02-2013,05-02-2013,30
CDISCPILOT01,DS,01-711-1012,4,NA,NA,DISPOSITION EVENT,09-18-2013,09-18-2013,169
CDISCPILOT01,DS,01-711-1022,1,Screen Failure,Screen Failure,DISPOSITION EVENT,03-17-2014,03-17-2014,NA
CDISCPILOT01,DS,01-711-1036,1,Randomized,Randomized,DISPOSITION EVENT,07-29-2012,07-29-2012,1
CDISCPILOT01,DS,01-711-1036,2,Protocol Completed,Completed,DISPOSITION EVENT,02-10-2013,02-10-2013,197
CDISCPILOT01,DS,01-711-1036,3,NA,NA,DISPOSITION EVENT,02-10-2013,02-10-2013,197
CDISCPILOT01,DS,01-711-1143,1,Randomized,Randomized,DISPOSITION EVENT,04-03-2013,04-03-2013,1
CDISCPILOT01,DS,01-711-1143,2,Adverse Event,Adverse Event,DISPOSITION EVENT,06-01-2013,06-01-2013,60
CDISCPILOT01,DS,01-711-1143,3,NA,NA,DISPOSITION EVENT,06-01-2013,06-01-2013,60
CDISCPILOT01,DS,01-711-1143,4,NA,NA,DISPOSITION EVENT,09-22-2013,09-22-2013,173
CDISCPILOT01,DS,01-711-1163,1,Screen Failure,Screen Failure,DISPOSITION EVENT,11-08-2012,11-08-2012,NA
CDISCPILOT01,DS,01-711-1173,1,Screen Failure,Screen Failure,DISPOSITION EVENT,10-04-2012,10-04-2012,NA
CDISCPILOT01,DS,01-711-1226,1,Screen Failure,Screen Failure,DISPOSITION EVENT,10-24-2013,10-24-2013,NA
CDISCPILOT01,DS,01-711-1251,1,Screen Failure,Screen Failure,DISPOSITION EVENT,02-28-2014,02-28-2014,NA
CDISCPILOT01,DS,01-711-1283,1,Screen Failure,Screen Failure,DISPOSITION EVENT,03-27-2014,03-27-2014,NA
CDISCPILOT01,DS,01-711-1284,1,Screen Failure,Screen Failure,DISPOSITION EVENT,08-05-2013,08-05-2013,NA
CDISCPILOT01,DS,01-711-1290,1,Screen Failure,Screen Failure,DISPOSITION EVENT,12-20-2013,12-20-2013,NA
CDISCPILOT01,DS,01-711-1433,1,Randomized,Randomized,DISPOSITION EVENT,01-27-2013,01-27-2013,1
CDISCPILOT01,DS,01-711-1433,2,Adverse Event,Adverse Event,DISPOSITION EVENT,02-06-2013,02-06-2013,11
CDISCPILOT01,DS,01-711-1433,3,NA,NA,DISPOSITION EVENT,02-06-2013,02-06-2013,11
CDISCPILOT01,DS,01-713-1043,1,Randomized,Randomized,DISPOSITION EVENT,09-15-2013,09-15-2013,1
CDISCPILOT01,DS,01-713-1043,2,Protocol Completed,Completed,DISPOSITION EVENT,03-24-2014,03-24-2014,191
CDISCPILOT01,DS,01-713-1043,3,NA,NA,DISPOSITION EVENT,03-24-2014,03-24-2014,191
CDISCPILOT01,DS,01-713-1073,1,Randomized,Randomized,DISPOSITION EVENT,03-30-2014,03-30-2014,1
CDISCPILOT01,DS,01-713-1073,2,Protocol Completed,Completed,DISPOSITION EVENT,10-05-2014,10-05-2014,190
CDISCPILOT01,DS,01-713-1073,3,NA,NA,DISPOSITION EVENT,10-05-2014,10-05-2014,190
CDISCPILOT01,DS,01-713-1106,1,Randomized,Randomized,DISPOSITION EVENT,10-31-2012,10-31-2012,1
CDISCPILOT01,DS,01-713-1106,2,Protocol Completed,Completed,DISPOSITION EVENT,05-06-2013,05-06-2013,188
CDISCPILOT01,DS,01-713-1106,3,NA,NA,DISPOSITION EVENT,05-06-2013,05-06-2013,188
CDISCPILOT01,DS,01-713-1141,1,Randomized,Randomized,DISPOSITION EVENT,05-31-2013,05-31-2013,1
CDISCPILOT01,DS,01-713-1141,2,Adverse Event,Adverse Event,DISPOSITION EVENT,08-06-2013,08-06-2013,68
CDISCPILOT01,DS,01-713-1141,3,NA,NA,DISPOSITION EVENT,08-06-2013,08-06-2013,68
CDISCPILOT01,DS,01-713-1179,1,Randomized,Randomized,DISPOSITION EVENT,08-09-2013,08-09-2013,1
CDISCPILOT01,DS,01-713-1179,2,Protocol Completed,Completed,DISPOSITION EVENT,02-05-2014,02-05-2014,181
CDISCPILOT01,DS,01-713-1179,3,NA,NA,DISPOSITION EVENT,02-05-2014,02-05-2014,181
CDISCPILOT01,DS,01-713-1209,1,Randomized,Randomized,DISPOSITION EVENT,05-27-2013,05-27-2013,1
CDISCPILOT01,DS,01-713-1209,2,Protocol Completed,Completed,DISPOSITION EVENT,11-22-2013,11-22-2013,180
CDISCPILOT01,DS,01-713-1209,3,NA,NA,DISPOSITION EVENT,11-22-2013,11-22-2013,180
CDISCPILOT01,DS,01-713-1256,1,Randomized,Randomized,DISPOSITION EVENT,09-19-2012,09-19-2012,1
CDISCPILOT01,DS,01-713-1256,2,Protocol Completed,Completed,DISPOSITION EVENT,03-25-2013,03-25-2013,188
CDISCPILOT01,DS,01-713-1256,3,NA,NA,DISPOSITION EVENT,03-25-2013,03-25-2013,188
CDISCPILOT01,DS,01-713-1269,1,Randomized,Randomized,DISPOSITION EVENT,01-27-2014,01-27-2014,1
CDISCPILOT01,DS,01-713-1269,2,Protocol Completed,Completed,DISPOSITION EVENT,07-28-2014,07-28-2014,183
CDISCPILOT01,DS,01-713-1269,3,NA,NA,DISPOSITION EVENT,07-28-2014,07-28-2014,183
CDISCPILOT01,DS,01-713-1448,1,Randomized,Randomized,DISPOSITION EVENT,01-19-2014,01-19-2014,1
CDISCPILOT01,DS,01-713-1448,2,Adverse Event,Adverse Event,DISPOSITION EVENT,05-17-2014,05-17-2014,119
CDISCPILOT01,DS,01-713-1448,3,NA,NA,DISPOSITION EVENT,05-17-2014,05-17-2014,119
CDISCPILOT01,DS,01-713-1448,4,NA,NA,DISPOSITION EVENT,07-27-2014,07-27-2014,190
CDISCPILOT01,DS,01-714-1035,1,Randomized,Randomized,DISPOSITION EVENT,04-17-2014,04-17-2014,1
CDISCPILOT01,DS,01-714-1035,2,Protocol Completed,Completed,DISPOSITION EVENT,10-16-2014,10-16-2014,183
CDISCPILOT01,DS,01-714-1035,3,NA,NA,DISPOSITION EVENT,10-16-2014,10-16-2014,183
CDISCPILOT01,DS,01-714-1068,1,Randomized,Randomized,DISPOSITION EVENT,08-08-2013,08-08-2013,1
CDISCPILOT01,DS,01-714-1068,2,Adverse Event,Adverse Event,DISPOSITION EVENT,10-16-2013,10-16-2013,70
CDISCPILOT01,DS,01-714-1068,3,NA,NA,DISPOSITION EVENT,10-16-2013,10-16-2013,70
CDISCPILOT01,DS,01-714-1195,1,Randomized,Randomized,DISPOSITION EVENT,04-26-2013,04-26-2013,1
CDISCPILOT01,DS,01-714-1195,2,Protocol Completed,Completed,DISPOSITION EVENT,10-23-2013,10-23-2013,181
CDISCPILOT01,DS,01-714-1195,3,NA,NA,DISPOSITION EVENT,10-23-2013,10-23-2013,181
CDISCPILOT01,DS,01-714-1288,1,Randomized,Randomized,DISPOSITION EVENT,12-04-2013,12-04-2013,1
CDISCPILOT01,DS,01-714-1288,2,Protocol Completed,Completed,DISPOSITION EVENT,06-17-2014,06-17-2014,196
CDISCPILOT01,DS,01-714-1288,3,NA,NA,DISPOSITION EVENT,06-17-2014,06-17-2014,196
CDISCPILOT01,DS,01-714-1375,1,Randomized,Randomized,DISPOSITION EVENT,02-26-2013,02-26-2013,1
CDISCPILOT01,DS,01-714-1375,2,Protocol Completed,Completed,DISPOSITION EVENT,09-07-2013,09-07-2013,194
CDISCPILOT01,DS,01-714-1375,3,NA,NA,DISPOSITION EVENT,09-07-2013,09-07-2013,194
CDISCPILOT01,DS,01-714-1425,1,Randomized,Randomized,DISPOSITION EVENT,08-15-2013,08-15-2013,1
CDISCPILOT01,DS,01-714-1425,2,Sponsor Decision (Study or Patient Discontinued by the Sponsor),Study Terminated by Sponsor,DISPOSITION EVENT,08-22-2013,08-22-2013,8
CDISCPILOT01,DS,01-714-1425,3,NA,NA,DISPOSITION EVENT,08-22-2013,08-22-2013,8
CDISCPILOT01,DS,01-715-1085,1,Randomized,Randomized,DISPOSITION EVENT,02-16-2013,02-16-2013,1
CDISCPILOT01,DS,01-715-1085,2,Protocol Completed,Completed,DISPOSITION EVENT,08-18-2013,08-18-2013,184
CDISCPILOT01,DS,01-715-1085,3,NA,NA,DISPOSITION EVENT,08-18-2013,08-18-2013,184
CDISCPILOT01,DS,01-715-1107,1,Randomized,Randomized,DISPOSITION EVENT,02-26-2013,02-26-2013,1
CDISCPILOT01,DS,01-715-1107,2,Adverse Event,Adverse Event,DISPOSITION EVENT,05-13-2013,05-13-2013,77
CDISCPILOT01,DS,01-715-1107,3,NA,NA,DISPOSITION EVENT,08-14-2013,08-14-2013,170
CDISCPILOT01,DS,01-715-1107,4,NA,NA,DISPOSITION EVENT,08-14-2013,08-14-2013,170
CDISCPILOT01,DS,01-715-1134,1,Screen Failure,Screen Failure,DISPOSITION EVENT,04-17-2014,04-17-2014,NA
CDISCPILOT01,DS,01-715-1155,1,Randomized,Randomized,DISPOSITION EVENT,12-13-2013,12-13-2013,1
CDISCPILOT01,DS,01-715-1155,2,NA,NA,DISPOSITION EVENT,01-10-2014,01-10-2014,29
CDISCPILOT01,DS,01-715-1155,3,Caregiver Withdrew from Study,Withdrawal by Subject,DISPOSITION EVENT,04-26-2014,04-26-2014,135
CDISCPILOT01,DS,01-715-1207,1,Randomized,Randomized,DISPOSITION EVENT,11-18-2012,11-18-2012,1
CDISCPILOT01,DS,01-715-1207,2,Protocol Completed,Completed,DISPOSITION EVENT,06-01-2013,06-01-2013,196
CDISCPILOT01,DS,01-715-1207,3,NA,NA,DISPOSITION EVENT,06-01-2013,06-01-2013,196
CDISCPILOT01,DS,01-715-1225,1,Screen Failure,Screen Failure,DISPOSITION EVENT,01-22-2013,01-22-2013,NA
CDISCPILOT01,DS,01-715-1319,1,Randomized,Randomized,DISPOSITION EVENT,02-17-2013,02-17-2013,1
CDISCPILOT01,DS,01-715-1319,2,Too Much Trouble for Caregiver,Withdrawal by Subject,DISPOSITION EVENT,03-18-2013,03-18-2013,30
CDISCPILOT01,DS,01-715-1319,3,NA,NA,DISPOSITION EVENT,03-18-2013,03-18-2013,30
CDISCPILOT01,DS,01-715-1321,1,Randomized,Randomized,DISPOSITION EVENT,02-11-2014,02-11-2014,1
CDISCPILOT01,DS,01-715-1321,2,Adverse Event,Adverse Event,DISPOSITION EVENT,04-22-2014,04-22-2014,71
CDISCPILOT01,DS,01-715-1321,3,NA,NA,DISPOSITION EVENT,04-22-2014,04-22-2014,71
CDISCPILOT01,DS,01-715-1333,1,Screen Failure,Screen Failure,DISPOSITION EVENT,06-03-2013,06-03-2013,NA
CDISCPILOT01,DS,01-715-1397,1,Randomized,Randomized,DISPOSITION EVENT,04-03-2013,04-03-2013,1
CDISCPILOT01,DS,01-715-1397,2,Protocol Completed,Completed,DISPOSITION EVENT,10-03-2013,10-03-2013,184
CDISCPILOT01,DS,01-715-1397,3,NA,NA,DISPOSITION EVENT,10-03-2013,10-03-2013,184
CDISCPILOT01,DS,01-715-1405,1,Randomized,Randomized,DISPOSITION EVENT,07-06-2013,07-06-2013,1
CDISCPILOT01,DS,01-715-1405,2,Adverse Event,Adverse Event,DISPOSITION EVENT,07-13-2013,07-13-2013,8
CDISCPILOT01,DS,01-715-1405,3,NA,NA,DISPOSITION EVENT,07-13-2013,07-13-2013,8
CDISCPILOT01,DS,01-715-1405,4,NA,NA,DISPOSITION EVENT,01-11-2014,01-11-2014,190
CDISCPILOT01,DS,01-715-1407,1,Screen Failure,Screen Failure,DISPOSITION EVENT,10-24-2012,10-24-2012,NA
CDISCPILOT01,DS,01-716-1003,1,Screen Failure,Screen Failure,DISPOSITION EVENT,03-29-2014,03-29-2014,NA
CDISCPILOT01,DS,01-716-1024,1,Randomized,Randomized,DISPOSITION EVENT,07-09-2012,07-09-2012,1
CDISCPILOT01,DS,01-716-1024,2,Protocol Completed,Completed,DISPOSITION EVENT,01-20-2013,01-20-2013,196
CDISCPILOT01,DS,01-716-1024,3,NA,NA,DISPOSITION EVENT,01-20-2013,01-20-2013,196
CDISCPILOT01,DS,01-716-1026,1,Randomized,Randomized,DISPOSITION EVENT,04-02-2014,04-02-2014,1
CDISCPILOT01,DS,01-716-1026,2,Protocol Completed,Completed,DISPOSITION EVENT,10-16-2014,10-16-2014,198
CDISCPILOT01,DS,01-716-1026,3,NA,NA,DISPOSITION EVENT,10-16-2014,10-16-2014,198
CDISCPILOT01,DS,01-716-1030,1,Randomized,Randomized,DISPOSITION EVENT,12-28-2013,12-28-2013,1
CDISCPILOT01,DS,01-716-1030,2,Pt Kept Removing Patches,Withdrawal by Subject,DISPOSITION EVENT,01-10-2014,01-10-2014,14
CDISCPILOT01,DS,01-716-1030,3,NA,NA,DISPOSITION EVENT,01-10-2014,01-10-2014,14
CDISCPILOT01,DS,01-716-1044,1,Randomized,Randomized,DISPOSITION EVENT,04-27-2013,04-27-2013,1
CDISCPILOT01,DS,01-716-1044,2,Protocol Completed,Completed,DISPOSITION EVENT,11-03-2013,11-03-2013,191
CDISCPILOT01,DS,01-716-1044,3,NA,NA,DISPOSITION EVENT,11-03-2013,11-03-2013,191
CDISCPILOT01,DS,01-716-1061,1,Screen Failure,Screen Failure,DISPOSITION EVENT,02-14-2014,02-14-2014,NA
CDISCPILOT01,DS,01-716-1063,1,Randomized,Randomized,DISPOSITION EVENT,05-09-2013,05-09-2013,1
CDISCPILOT01,DS,01-716-1063,2,Adverse Event,Adverse Event,DISPOSITION EVENT,08-28-2013,08-28-2013,112
CDISCPILOT01,DS,01-716-1063,3,NA,NA,DISPOSITION EVENT,08-28-2013,08-28-2013,112
CDISCPILOT01,DS,01-716-1063,4,NA,NA,DISPOSITION EVENT,11-17-2013,11-17-2013,193
CDISCPILOT01,DS,01-716-1071,1,Randomized,Randomized,DISPOSITION EVENT,06-08-2013,06-08-2013,1
CDISCPILOT01,DS,01-716-1071,2,Adverse Event,Adverse Event,DISPOSITION EVENT,08-01-2013,08-01-2013,55
CDISCPILOT01,DS,01-716-1071,3,NA,NA,DISPOSITION EVENT,08-01-2013,08-01-2013,55
CDISCPILOT01,DS,01-716-1071,4,NA,NA,DISPOSITION EVENT,12-16-2013,12-16-2013,192
CDISCPILOT01,DS,01-716-1094,1,Randomized,Randomized,DISPOSITION EVENT,12-19-2012,12-19-2012,1
CDISCPILOT01,DS,01-716-1094,2,Adverse Event,Adverse Event,DISPOSITION EVENT,01-26-2013,01-26-2013,39
CDISCPILOT01,DS,01-716-1094,3,NA,NA,DISPOSITION EVENT,01-26-2013,01-26-2013,39
CDISCPILOT01,DS,01-716-1094,4,NA,NA,DISPOSITION EVENT,06-22-2013,06-22-2013,186
CDISCPILOT01,DS,01-716-1103,1,Randomized,Randomized,DISPOSITION EVENT,03-20-2014,03-20-2014,1
CDISCPILOT01,DS,01-716-1103,2,Protocol Completed,Completed,DISPOSITION EVENT,09-20-2014,09-20-2014,185
CDISCPILOT01,DS,01-716-1103,3,NA,NA,DISPOSITION EVENT,09-20-2014,09-20-2014,185
CDISCPILOT01,DS,01-716-1108,1,Randomized,Randomized,DISPOSITION EVENT,02-12-2013,02-12-2013,1
CDISCPILOT01,DS,01-716-1108,2,Protocol Completed,Completed,DISPOSITION EVENT,08-10-2013,08-10-2013,180
CDISCPILOT01,DS,01-716-1108,3,NA,NA,DISPOSITION EVENT,08-10-2013,08-10-2013,180
CDISCPILOT01,DS,01-716-1151,1,Randomized,Randomized,DISPOSITION EVENT,02-01-2013,02-01-2013,1
CDISCPILOT01,DS,01-716-1151,2,Adverse Event,Adverse Event,DISPOSITION EVENT,06-07-2013,06-07-2013,127
CDISCPILOT01,DS,01-716-1151,3,NA,NA,DISPOSITION EVENT,06-07-2013,06-07-2013,127
CDISCPILOT01,DS,01-716-1151,4,NA,NA,DISPOSITION EVENT,08-13-2013,08-13-2013,194
CDISCPILOT01,DS,01-716-1157,1,Randomized,Randomized,DISPOSITION EVENT,10-02-2013,10-02-2013,1
CDISCPILOT01,DS,01-716-1157,2,Protocol Completed,Completed,DISPOSITION EVENT,04-05-2014,04-05-2014,186
CDISCPILOT01,DS,01-716-1157,3,NA,NA,DISPOSITION EVENT,04-05-2014,04-05-2014,186
CDISCPILOT01,DS,01-716-1160,1,Randomized,Randomized,DISPOSITION EVENT,04-05-2013,04-05-2013,1
CDISCPILOT01,DS,01-716-1160,2,Protocol Completed,Completed,DISPOSITION EVENT,10-11-2013,10-11-2013,190
CDISCPILOT01,DS,01-716-1160,3,NA,NA,DISPOSITION EVENT,10-11-2013,10-11-2013,190
CDISCPILOT01,DS,01-716-1167,1,Randomized,Randomized,DISPOSITION EVENT,10-08-2012,10-08-2012,1
CDISCPILOT01,DS,01-716-1167,2,Protocol Completed,Completed,DISPOSITION EVENT,04-13-2013,04-13-2013,188
CDISCPILOT01,DS,01-716-1167,3,NA,NA,DISPOSITION EVENT,04-13-2013,04-13-2013,188
CDISCPILOT01,DS,01-716-1177,1,Randomized,Randomized,DISPOSITION EVENT,09-02-2014,09-02-2014,1
CDISCPILOT01,DS,01-716-1177,2,Protocol Completed,Completed,DISPOSITION EVENT,03-05-2015,03-05-2015,185
CDISCPILOT01,DS,01-716-1177,3,NA,NA,DISPOSITION EVENT,03-05-2015,03-05-2015,185
CDISCPILOT01,DS,01-716-1189,1,Randomized,Randomized,DISPOSITION EVENT,10-09-2012,10-09-2012,1
CDISCPILOT01,DS,01-716-1189,2,Adverse Event,Adverse Event,DISPOSITION EVENT,03-03-2013,03-03-2013,146
CDISCPILOT01,DS,01-716-1189,3,NA,NA,DISPOSITION EVENT,03-03-2013,03-03-2013,146
CDISCPILOT01,DS,01-716-1189,4,NA,NA,DISPOSITION EVENT,04-08-2013,04-08-2013,182
CDISCPILOT01,DS,01-716-1229,1,Randomized,Randomized,DISPOSITION EVENT,02-20-2013,02-20-2013,1
CDISCPILOT01,DS,01-716-1229,2,Adverse Event,Adverse Event,DISPOSITION EVENT,04-02-2013,04-02-2013,42
CDISCPILOT01,DS,01-716-1229,3,NA,NA,DISPOSITION EVENT,04-02-2013,04-02-2013,42
CDISCPILOT01,DS,01-716-1244,1,Screen Failure,Screen Failure,DISPOSITION EVENT,08-15-2013,08-15-2013,NA
CDISCPILOT01,DS,01-716-1298,1,Randomized,Randomized,DISPOSITION EVENT,04-08-2013,04-08-2013,1
CDISCPILOT01,DS,01-716-1298,2,Adverse Event,Adverse Event,DISPOSITION EVENT,07-06-2013,07-06-2013,90
CDISCPILOT01,DS,01-716-1298,3,NA,NA,DISPOSITION EVENT,07-06-2013,07-06-2013,90
CDISCPILOT01,DS,01-716-1298,4,NA,NA,DISPOSITION EVENT,10-07-2013,10-07-2013,183
CDISCPILOT01,DS,01-716-1305,1,Screen Failure,Screen Failure,DISPOSITION EVENT,08-06-2013,08-06-2013,NA
CDISCPILOT01,DS,01-716-1308,1,Randomized,Randomized,DISPOSITION EVENT,08-28-2013,08-28-2013,1
CDISCPILOT01,DS,01-716-1308,2,Placed in Nursing Home,Withdrawal by Subject,DISPOSITION EVENT,10-07-2013,10-07-2013,41
CDISCPILOT01,DS,01-716-1308,3,NA,NA,DISPOSITION EVENT,10-07-2013,10-07-2013,41
CDISCPILOT01,DS,01-716-1311,1,Randomized,Randomized,DISPOSITION EVENT,05-14-2014,05-14-2014,1
CDISCPILOT01,DS,01-716-1311,2,Institutionalized,Withdrawal by Subject,DISPOSITION EVENT,09-30-2014,09-30-2014,140
CDISCPILOT01,DS,01-716-1311,3,NA,NA,DISPOSITION EVENT,09-30-2014,09-30-2014,140
CDISCPILOT01,DS,01-716-1311,4,NA,NA,DISPOSITION EVENT,11-15-2014,11-15-2014,186
CDISCPILOT01,DS,01-716-1331,1,Screen Failure,Screen Failure,DISPOSITION EVENT,11-25-2013,11-25-2013,NA
CDISCPILOT01,DS,01-716-1364,1,Randomized,Randomized,DISPOSITION EVENT,07-04-2013,07-04-2013,1
CDISCPILOT01,DS,01-716-1364,2,Protocol Completed,Completed,DISPOSITION EVENT,01-09-2014,01-09-2014,190
CDISCPILOT01,DS,01-716-1364,3,NA,NA,DISPOSITION EVENT,01-09-2014,01-09-2014,190
CDISCPILOT01,DS,01-716-1373,1,Randomized,Randomized,DISPOSITION EVENT,12-14-2012,12-14-2012,1
CDISCPILOT01,DS,01-716-1373,2,Adverse Event,Adverse Event,DISPOSITION EVENT,02-28-2013,02-28-2013,77
CDISCPILOT01,DS,01-716-1373,3,NA,NA,DISPOSITION EVENT,02-28-2013,02-28-2013,77
CDISCPILOT01,DS,01-716-1418,1,Randomized,Randomized,DISPOSITION EVENT,05-05-2013,05-05-2013,1
CDISCPILOT01,DS,01-716-1418,2,Protocol Completed,Completed,DISPOSITION EVENT,11-20-2013,11-20-2013,200
CDISCPILOT01,DS,01-716-1418,3,NA,NA,DISPOSITION EVENT,11-20-2013,11-20-2013,200
CDISCPILOT01,DS,01-716-1441,1,Randomized,Randomized,DISPOSITION EVENT,01-22-2014,01-22-2014,1
CDISCPILOT01,DS,01-716-1441,2,Protocol Completed,Completed,DISPOSITION EVENT,07-22-2014,07-22-2014,182
CDISCPILOT01,DS,01-716-1441,3,NA,NA,DISPOSITION EVENT,07-22-2014,07-22-2014,182
CDISCPILOT01,DS,01-716-1447,1,Randomized,Randomized,DISPOSITION EVENT,12-16-2013,12-16-2013,1
CDISCPILOT01,DS,01-716-1447,2,Protocol Completed,Completed,DISPOSITION EVENT,06-17-2014,06-17-2014,184
CDISCPILOT01,DS,01-716-1447,3,NA,NA,DISPOSITION EVENT,06-17-2014,06-17-2014,184
CDISCPILOT01,DS,01-717-1004,1,Randomized,Randomized,DISPOSITION EVENT,01-14-2014,01-14-2014,1
CDISCPILOT01,DS,01-717-1004,2,Protocol Completed,Completed,DISPOSITION EVENT,07-16-2014,07-16-2014,184
CDISCPILOT01,DS,01-717-1004,3,NA,NA,DISPOSITION EVENT,07-16-2014,07-16-2014,184
CDISCPILOT01,DS,01-717-1109,1,Randomized,Randomized,DISPOSITION EVENT,01-27-2014,01-27-2014,1
CDISCPILOT01,DS,01-717-1109,2,Protocol Completed,Completed,DISPOSITION EVENT,07-28-2014,07-28-2014,183
CDISCPILOT01,DS,01-717-1109,3,NA,NA,DISPOSITION EVENT,07-28-2014,07-28-2014,183
CDISCPILOT01,DS,01-717-1174,1,Randomized,Randomized,DISPOSITION EVENT,01-22-2013,01-22-2013,1
CDISCPILOT01,DS,01-717-1174,2,Protocol Completed,Completed,DISPOSITION EVENT,07-24-2013,07-24-2013,184
CDISCPILOT01,DS,01-717-1174,3,NA,NA,DISPOSITION EVENT,07-24-2013,07-24-2013,184
CDISCPILOT01,DS,01-717-1201,1,Randomized,Randomized,DISPOSITION EVENT,12-19-2013,12-19-2013,1
CDISCPILOT01,DS,01-717-1201,2,"Lack of Efficacy, Patient Caregiver Perception",Lack of Efficacy,DISPOSITION EVENT,02-21-2014,02-21-2014,65
CDISCPILOT01,DS,01-717-1201,3,NA,NA,DISPOSITION EVENT,02-21-2014,02-21-2014,65
CDISCPILOT01,DS,01-717-1344,1,Randomized,Randomized,DISPOSITION EVENT,01-11-2014,01-11-2014,1
CDISCPILOT01,DS,01-717-1344,2,"Lack of Efficacy, Patient Caregiver Perception",Lack of Efficacy,DISPOSITION EVENT,03-14-2014,03-14-2014,63
CDISCPILOT01,DS,01-717-1344,3,NA,NA,DISPOSITION EVENT,03-14-2014,03-14-2014,63
CDISCPILOT01,DS,01-717-1357,1,Randomized,Randomized,DISPOSITION EVENT,05-01-2013,05-01-2013,1
CDISCPILOT01,DS,01-717-1357,2,Sponsor Decision (Study or Patient Discontinued by the Sponsor),Study Terminated by Sponsor,DISPOSITION EVENT,10-20-2013,10-20-2013,173
CDISCPILOT01,DS,01-717-1357,3,NA,NA,DISPOSITION EVENT,10-20-2013,10-20-2013,173
CDISCPILOT01,DS,01-717-1446,1,Randomized,Randomized,DISPOSITION EVENT,09-01-2013,09-01-2013,1
CDISCPILOT01,DS,01-717-1446,2,Protocol Completed,Completed,DISPOSITION EVENT,03-04-2014,03-04-2014,185
CDISCPILOT01,DS,01-717-1446,3,NA,NA,DISPOSITION EVENT,03-17-2014,03-17-2014,198
CDISCPILOT01,DS,01-718-1066,1,Randomized,Randomized,DISPOSITION EVENT,07-07-2013,07-07-2013,1
CDISCPILOT01,DS,01-718-1066,2,Adverse Event,Adverse Event,DISPOSITION EVENT,07-30-2013,07-30-2013,24
CDISCPILOT01,DS,01-718-1066,3,NA,NA,DISPOSITION EVENT,07-30-2013,07-30-2013,24
CDISCPILOT01,DS,01-718-1079,1,Randomized,Randomized,DISPOSITION EVENT,09-19-2012,09-19-2012,1
CDISCPILOT01,DS,01-718-1079,2,NA,NA,DISPOSITION EVENT,10-31-2012,10-31-2012,43
CDISCPILOT01,DS,01-718-1079,3,Adverse Event,Adverse Event,DISPOSITION EVENT,11-06-2012,11-06-2012,49
CDISCPILOT01,DS,01-718-1079,4,NA,NA,DISPOSITION EVENT,03-05-2013,03-05-2013,168
CDISCPILOT01,DS,01-718-1101,1,Randomized,Randomized,DISPOSITION EVENT,02-17-2013,02-17-2013,1
CDISCPILOT01,DS,01-718-1101,2,Sponsor Decision (Study or Patient Discontinued by the Sponsor),Study Terminated by Sponsor,DISPOSITION EVENT,08-02-2013,08-02-2013,167
CDISCPILOT01,DS,01-718-1101,3,NA,NA,DISPOSITION EVENT,08-02-2013,08-02-2013,167
CDISCPILOT01,DS,01-718-1139,1,Randomized,Randomized,DISPOSITION EVENT,05-19-2013,05-19-2013,1
CDISCPILOT01,DS,01-718-1139,2,Protocol Completed,Completed,DISPOSITION EVENT,11-17-2013,11-17-2013,183
CDISCPILOT01,DS,01-718-1139,3,NA,NA,DISPOSITION EVENT,11-17-2013,11-17-2013,183
CDISCPILOT01,DS,01-718-1150,1,Randomized,Randomized,DISPOSITION EVENT,01-19-2013,01-19-2013,1
CDISCPILOT01,DS,01-718-1150,2,Protocol Completed,Completed,DISPOSITION EVENT,07-31-2013,07-31-2013,194
CDISCPILOT01,DS,01-718-1150,3,NA,NA,DISPOSITION EVENT,07-31-2013,07-31-2013,194
CDISCPILOT01,DS,01-718-1170,1,Randomized,Randomized,DISPOSITION EVENT,09-16-2013,09-16-2013,1
CDISCPILOT01,DS,01-718-1170,2,Adverse Event,Adverse Event,DISPOSITION EVENT,11-03-2013,11-03-2013,49
CDISCPILOT01,DS,01-718-1170,3,NA,NA,DISPOSITION EVENT,11-03-2013,11-03-2013,49
CDISCPILOT01,DS,01-718-1170,4,NA,NA,DISPOSITION EVENT,03-15-2014,03-15-2014,181
CDISCPILOT01,DS,01-718-1172,1,Randomized,Randomized,DISPOSITION EVENT,09-21-2013,09-21-2013,1
CDISCPILOT01,DS,01-718-1172,2,Patient to Begin Course of Aricept,Withdrawal by Subject,DISPOSITION EVENT,11-29-2013,11-29-2013,70
CDISCPILOT01,DS,01-718-1172,3,NA,NA,DISPOSITION EVENT,11-29-2013,11-29-2013,70
CDISCPILOT01,DS,01-718-1172,4,NA,NA,DISPOSITION EVENT,03-21-2014,03-21-2014,182
CDISCPILOT01,DS,01-718-1250,1,Randomized,Randomized,DISPOSITION EVENT,09-21-2013,09-21-2013,1
CDISCPILOT01,DS,01-718-1250,2,Adverse Event,Adverse Event,DISPOSITION EVENT,02-08-2014,02-08-2014,141
CDISCPILOT01,DS,01-718-1250,3,NA,NA,DISPOSITION EVENT,02-08-2014,02-08-2014,141
CDISCPILOT01,DS,01-718-1250,4,NA,NA,DISPOSITION EVENT,03-08-2014,03-08-2014,169
CDISCPILOT01,DS,01-718-1254,1,Randomized,Randomized,DISPOSITION EVENT,07-10-2013,07-10-2013,1
CDISCPILOT01,DS,01-718-1254,2,Protocol Completed,Completed,DISPOSITION EVENT,01-09-2014,01-09-2014,184
CDISCPILOT01,DS,01-718-1254,3,NA,NA,DISPOSITION EVENT,01-09-2014,01-09-2014,184
CDISCPILOT01,DS,01-718-1328,1,Randomized,Randomized,DISPOSITION EVENT,02-01-2013,02-01-2013,1
CDISCPILOT01,DS,01-718-1328,2,Patient Unable to Tolerate Dermal Irritation at Patch Site,Withdrawal by Subject,DISPOSITION EVENT,05-01-2013,05-01-2013,90
CDISCPILOT01,DS,01-718-1328,3,NA,NA,DISPOSITION EVENT,05-01-2013,05-01-2013,90
CDISCPILOT01,DS,01-718-1328,4,NA,NA,DISPOSITION EVENT,07-24-2013,07-24-2013,174
CDISCPILOT01,DS,01-718-1355,1,Randomized,Randomized,DISPOSITION EVENT,02-28-2013,02-28-2013,1
CDISCPILOT01,DS,01-718-1355,2,Protocol Completed,Completed,DISPOSITION EVENT,08-29-2013,08-29-2013,183
CDISCPILOT01,DS,01-718-1355,3,NA,NA,DISPOSITION EVENT,08-29-2013,08-29-2013,183
CDISCPILOT01,DS,01-718-1371,1,Randomized,Randomized,DISPOSITION EVENT,04-26-2013,04-26-2013,1
CDISCPILOT01,DS,01-718-1371,2,NA,NA,DISPOSITION EVENT,08-01-2013,08-01-2013,98
CDISCPILOT01,DS,01-718-1371,3,Adverse Event,Adverse Event,DISPOSITION EVENT,08-08-2013,08-08-2013,105
CDISCPILOT01,DS,01-718-1427,1,Randomized,Randomized,DISPOSITION EVENT,12-17-2012,12-17-2012,1
CDISCPILOT01,DS,01-718-1427,2,"Lack of Efficacy, Patient Caregiver Perception",Lack of Efficacy,DISPOSITION EVENT,02-18-2013,02-18-2013,64
CDISCPILOT01,DS,01-718-1427,3,NA,NA,DISPOSITION EVENT,02-18-2013,02-18-2013,64
CDISCPILOT01,DS,01-718-1427,4,NA,NA,DISPOSITION EVENT,06-03-2013,06-03-2013,169
